frame,simulation_time,accel_x_mps2,accel_y_mps2,accel_z_mps2,gyro_x_radps,gyro_y_radps,gyro_z_radps,compass_rad
8468,274.87430774049426,-1.5288974290530223e-36,1.3377256290953731e-35,9.8100004196167,0.0,0.0,0.0,3.152801990509033
8469,274.9243077412393,-1.5288974290530223e-36,1.3377256290953731e-35,9.8100004196167,0.0,0.0,0.0,3.152801990509033
8470,274.9743077419844,5202.56640625,-45520.44140625,-865.4699096679688,0.0,0.0,0.0,3.152801990509033
8471,275.02430774272943,0.0,0.0,15.689922332763672,0.0,0.0,0.0,3.152801990509033
8472,275.0743077434745,0.0,0.0,0.010156631469726562,0.0,0.0,0.0,3.152801990509033
8473,275.12430774421955,0.0,0.0,0.009922981262207031,0.0,0.0,0.0,3.152801990509033
8474,275.1743077449646,0.0,0.0,22.977773666381836,4.850206778428401e-07,1.1222334705962567e-07,3.904848666635985e-11,3.152801990509033
8475,275.22430774570967,0.0,0.0,32.633750915527344,3.903882088707178e-07,-7.251179567902e-08,-1.626996315451379e-10,3.152801990509033
8476,275.2743077464547,-0.22697541117668152,-0.21702204644680023,27.453676223754883,0.016004787757992744,-0.022594839334487915,-5.204595254326705e-06,3.152801990509033
8477,275.3243077471998,-0.03236089646816254,0.011516038328409195,15.45195484161377,0.0024271835573017597,-0.006474639289081097,-5.3619814934791066e-06,3.152801990509033
8478,275.37430774794484,0.2696457505226135,0.24480223655700684,11.28152084350586,-0.0019205616554245353,0.0011169776553288102,1.083582901628688e-06,3.152796745300293
8479,275.4243077486899,0.11927607655525208,0.06409429013729095,9.710515022277832,-0.0028550568968057632,0.004034793004393578,2.5709996407385916e-06,3.152796745300293
8480,275.47430774943496,0.03969532623887062,0.013299979269504547,8.95922565460205,-0.002624145243316889,0.004585589747875929,2.1044149889348773e-06,3.152796745300293
8481,275.52430775018,0.0004582498222589493,-0.012388866394758224,8.711021423339844,-0.0020841327495872974,0.004083700478076935,1.3377461982599925e-06,3.152796745300293
8482,275.5743077509251,-0.014100948348641396,-0.0030013583600521088,8.742976188659668,-0.0015488862991333008,0.0032324367202818394,7.664301620025071e-07,3.152801990509033
8483,275.62430775167013,-0.019105354323983192,-0.013494238257408142,8.906648635864258,-0.001107960008084774,0.0023737442679703236,4.192820028947608e-07,3.152801990509033
8484,275.6743077524152,-0.016747765243053436,-0.00890803337097168,9.112231254577637,-0.0007756530540063977,0.0016477775061503053,2.2665295773549587e-07,3.152801990509033
8485,275.72430775316025,-0.014308794401586056,-0.019215773791074753,9.309261322021484,-0.0005348584381863475,0.0010913623264059424,1.2604388643921993e-07,3.152801990509033
8486,275.7743077539053,-0.010828240774571896,-0.009449347853660583,9.47515869140625,-0.0003653768799267709,0.0006922278553247452,7.156148740250501e-08,3.152801990509033
8487,275.82430775465036,-0.006584953982383013,0.0003634802997112274,9.602617263793945,-0.0002480696712154895,0.00041998372762463987,4.295242206353578e-08,3.152801990509033
8488,275.8743077553954,-0.006049119867384434,0.005265936255455017,9.693476676940918,-0.0001666985626798123,0.00024309559375979006,2.7558849424735854e-08,3.152801990509033
8489,275.9243077561405,-0.0038002212531864643,-0.009827454574406147,9.754219055175781,-0.00011204695329070091,0.0001321643649134785,1.7535533913815016e-08,3.152801990509033
8490,275.97430775688554,-0.001232412876561284,0.00010267086327075958,9.791563034057617,-7.529066351708025e-05,6.660271174041554e-05,1.1457877313603149e-08,3.152801990509033
8491,276.0243077576306,-0.0018571937689557672,0.00011058582458645105,9.8920316696167,0.0,0.0,0.0,3.152801990509033
8492,276.07430775837565,1.7541642591822892e-05,8.882707334123552e-05,9.8100004196167,0.0,0.0,0.0,3.152801990509033
8493,276.1243077591207,1.7541642591822892e-05,8.882707334123552e-05,9.8100004196167,0.0,0.0,0.0,3.152801990509033
8494,276.17430775986577,1.7541642591822892e-05,8.882707334123552e-05,9.8100004196167,0.0,0.0,0.0,3.152801990509033
8495,276.2243077606108,1.7541642591822892e-05,8.882707334123552e-05,9.8100004196167,0.0,0.0,0.0,3.152801990509033
8496,276.2743077613559,1.7541642591822892e-05,8.882707334123552e-05,9.8100004196167,0.0,0.0,0.0,3.152801990509033
8497,276.32430776210094,1.7541642591822892e-05,8.882707334123552e-05,9.8100004196167,0.0,0.0,0.0,3.152801990509033
8498,276.374307762846,1.7541642591822892e-05,8.882707334123552e-05,9.8100004196167,0.0,0.0,0.0,3.152801990509033
8499,276.42430776359106,1.7541642591822892e-05,8.882707334123552e-05,9.8100004196167,0.0,0.0,0.0,3.152801990509033
8500,276.4743077643361,1.7541642591822892e-05,8.882707334123552e-05,9.8100004196167,0.0,0.0,0.0,3.152801990509033
8501,276.5243077650812,1.7541642591822892e-05,8.882707334123552e-05,9.8100004196167,0.0,0.0,0.0,3.152801990509033
8502,276.57430776582623,1.7541642591822892e-05,8.882707334123552e-05,9.8100004196167,0.0,0.0,0.0,3.152801990509033
8503,276.6243077665713,1.7541642591822892e-05,8.882707334123552e-05,9.8100004196167,0.0,0.0,0.0,3.152801990509033
8504,276.67430776731635,1.7541642591822892e-05,8.882707334123552e-05,9.8100004196167,0.0,0.0,0.0,3.152801990509033
8505,276.7243077680614,1.7541642591822892e-05,8.882707334123552e-05,9.8100004196167,0.0,0.0,0.0,3.152801990509033
8506,276.77430776880647,1.7541642591822892e-05,8.882707334123552e-05,9.8100004196167,0.0,0.0,0.0,3.152801990509033
8507,276.8243077695515,1.7371901776641607e-05,8.796757902018726e-05,9.715078353881836,-3.273320908192545e-05,5.771107680629939e-06,-7.671237867157288e-09,3.152801990509033
8508,276.8743077702966,1.2893075108877383e-05,5.760679778177291e-05,9.832265853881836,-3.5489414585754275e-05,6.827613105997443e-06,6.148854203580356e-10,3.152801990509033
8509,276.92430777104164,1.2891023288830183e-05,5.759764462709427e-05,9.830703735351562,-3.450897929724306e-05,6.188931365613826e-06,-7.2706543008393965e-09,3.152801990509033
8510,276.9743077717867,6.190035492181778e-05,0.005031093023717403,9.827539443969727,-2.311546813871246e-05,5.172872988623567e-06,-3.229286560380018e-10,3.152801990509033
8511,277.02430777253176,-5.0187576562166214e-05,-0.004968293011188507,9.823203086853027,-1.5164492651820183e-05,3.59694331564242e-06,-4.2852271731064207e-10,3.152801990509033
8512,277.0743077732768,5.852873073308729e-06,3.1381070584757254e-05,9.81949234008789,-1.1247097063460387e-05,2.75938418781152e-06,-1.865810700385495e-10,3.152801990509033
8513,277.1243077740219,0.0006273011094890535,3.451539669185877e-06,9.816250801086426,-7.360244580922881e-06,1.7071392903744709e-06,-1.5421373900093016e-10,3.152801990509033
8514,277.17430777476693,-0.0006226209807209671,1.7459678929299116e-05,9.813828468322754,-4.745025762531441e-06,9.364198376715649e-07,-1.0374212600083865e-10,3.152801990509033
8515,277.224307775512,2.3392767616314813e-06,1.0451992238813546e-05,9.811640739440918,-2.751501597231254e-06,4.838962013309356e-07,2.6773102831945117e-11,3.152801990509033
8516,277.27430777625705,2.3392767616314813e-06,1.0451992238813546e-05,9.811640739440918,-2.8397003006830346e-06,5.60406306249206e-07,1.3595154169099288e-10,3.152801990509033
8517,277.3243077770021,2.338885678909719e-06,1.045024509949144e-05,9.8100004196167,-1.7990215610552696e-06,4.9101572585641406e-08,-1.190168519293877e-10,3.152801990509033
8518,277.37430777774716,2.3388765839627013e-06,1.0450203262735158e-05,9.809961318969727,-1.4310592177935177e-06,4.4533828713611e-07,8.806787243909042e-11,3.152801990509033
8519,277.4243077784922,2.3388397494272795e-06,1.0450035915710032e-05,9.809804916381836,-1.1912781019418617e-06,3.1394654342875583e-07,1.1436106402140656e-11,3.152801990509033
8520,277.4743077792373,2.3387838155031204e-06,1.0449786714161746e-05,9.8095703125,-1.911659865072579e-06,1.2875887023255927e-07,1.671783128598392e-10,3.152801990509033
8521,277.52430777998234,2.3388206500385422e-06,1.044995315169217e-05,9.80972671508789,-2.9989294603183225e-07,-3.4383421620987065e-07,-1.6060179575116962e-10,3.152801990509033
8522,277.5743077807274,2.3388397494272795e-06,1.0450035915710032e-05,9.809804916381836,-1.1648802455965779e-07,-8.248927940712747e-08,1.0414421061644141e-11,3.152801990509033
8523,277.62430778147245,2.338765170861734e-06,1.0449704859638587e-05,9.809493064880371,1.1077830777139752e-06,-4.752492941406672e-07,-2.712828295337033e-10,3.152801990509033
8524,277.6743077822175,4.8665852546691895,-0.0404820442199707,9.595508575439453,-4.1116029024124146e-05,-0.03324253112077713,0.022156722843647003,3.153017997741699
8525,277.72430778296257,5.130431652069092,0.08776044845581055,9.8058500289917,-9.354203939437866e-06,-0.023440834134817123,2.0406523617566563e-05,3.152801990509033
8526,277.7743077837076,3.0378615856170654,-0.013167381286621094,9.904555320739746,-0.00030510430224239826,-0.003776474855840206,-0.013762868009507656,3.1525981426239014
8527,277.8243077844527,1.6588778495788574,-0.0530925989151001,9.897595405578613,0.00017321412451565266,0.002126778941601515,0.016385730355978012,3.152679204940796
8528,277.87430778519774,1.085313081741333,0.048395633697509766,9.862556457519531,-0.00028623687103390694,0.006613792851567268,-0.012444534339010715,3.152522087097168
8529,277.9243077859428,1.3494410514831543,-0.05463743209838867,9.80849838256836,0.00025825295597314835,0.0049233948811888695,0.012253870256245136,3.1526143550872803
8530,277.97430778668786,0.9167541265487671,0.050211966037750244,9.816734313964844,-0.00020103110000491142,0.007507254835218191,-0.013632554560899734,3.152472972869873
8531,278.0243077874329,0.7870528697967529,-0.048498570919036865,9.80440902709961,0.0001564929261803627,0.0049940976314246655,0.013821527361869812,3.15260910987854
8532,278.074307788178,0.5446158647537231,0.049216508865356445,9.807389259338379,-9.946851059794426e-05,0.006371069233864546,-0.014380897395312786,3.152456521987915
8533,278.12430778892303,0.5968933701515198,-0.05645650625228882,9.796627044677734,5.8281468227505684e-05,0.0031655135098844767,0.014466428197920322,3.1525981426239014
8534,278.1743077896681,0.4505499005317688,0.05020570755004883,9.804028511047363,-2.772081643342972e-06,0.004284990020096302,-0.014688074588775635,3.1524510383605957
8535,278.22430779041315,0.5821643471717834,-0.04132843017578125,9.795726776123047,-3.330153413116932e-05,0.0010022158967331052,0.014754519797861576,3.1525981426239014
8536,278.2743077911582,0.5498232245445251,0.04410910606384277,9.802788734436035,6.270036101341248e-05,0.001975716557353735,-0.014591245912015438,3.1524510383605957
8537,278.32430779190327,0.7799977660179138,-0.05351972579956055,9.795428276062012,-7.108296267688274e-05,-0.0012320778332650661,0.014574983157217503,3.15260910987854
8538,278.3743077926483,0.776408851146698,0.05664563179016113,9.805493354797363,7.316062692552805e-05,0.0001994625199586153,-0.014315862208604813,3.1524620056152344
8539,278.4243077933934,0.972668468952179,-0.060634732246398926,9.800471305847168,-6.655603647232056e-05,-0.0023315120488405228,0.014285504817962646,3.1526036262512207
8540,278.47430779413844,0.9094756841659546,0.05520588159561157,9.811686515808105,6.0240228776820004e-05,-0.00022698752582073212,-0.014043590053915977,3.152472972869873
8541,278.5243077948835,1.0528337955474854,-0.04650533199310303,9.80554485321045,-5.017290823161602e-05,-0.0022677916567772627,0.014014768414199352,3.15260910987854
8542,278.57430779562856,0.9492409825325012,0.044779300689697266,9.81478500366211,4.515844921115786e-05,0.00014170195208862424,-0.013802244327962399,3.152472972869873
8543,278.6243077963736,1.0631628036499023,-0.0416111946105957,9.807195663452148,-3.691599704325199e-05,-0.0017730178078636527,0.013772103935480118,3.1526143550872803
8544,278.6743077971187,0.9423372745513916,0.039856553077697754,9.81535530090332,3.29422764480114e-05,0.0006538450252264738,-0.013585738837718964,3.1524784564971924
8545,278.72430779786373,1.0448273420333862,-0.04140615463256836,9.806936264038086,-2.6791822165250778e-05,-0.0013112801825627685,0.013551167212426662,3.1526198387145996
8546,278.7743077986088,0.9182256460189819,0.04511767625808716,9.814541816711426,2.4636159650981426e-05,0.0010354468831792474,-0.013382671400904655,3.1524839401245117
8547,278.82430779935385,1.017316460609436,-0.046104252338409424,9.806416511535645,-2.1396786905825138e-05,-0.0010127462446689606,0.013342074118554592,3.1526198387145996
8548,278.8743078000989,0.8878879547119141,0.05044448375701904,9.813801765441895,1.8987921066582203e-05,0.001255594426766038,-0.013186612166464329,3.1524839401245117
8549,278.92430780084396,0.9867265820503235,-0.05577075481414795,9.805802345275879,-1.7560552805662155e-05,-0.0008552484214305878,0.013140127994120121,3.152625322341919
8550,278.974307801589,0.8557853102684021,0.0507885217666626,9.813310623168945,1.639546826481819e-05,0.0013618337688967586,-0.012993667274713516,3.1524949073791504
8551,279.0243078023341,0.9553160071372986,-0.04542821645736694,9.805473327636719,-1.4441553503274918e-05,-0.0007846981170587242,0.012942057102918625,3.1526198387145996
8552,279.07430780307914,0.8260617256164551,0.04610663652420044,9.813287734985352,1.4555989764630795e-05,0.0014041875256225467,-0.012802638113498688,3.1524949073791504
8553,279.1243078038242,0.9253199100494385,-0.04510146379470825,9.805103302001953,-1.1906318832188845e-05,-0.0007590139866806567,0.012746576219797134,3.1526198387145996
8554,279.17430780456925,0.7957431077957153,0.04643136262893677,9.81326675415039,1.1513824574649334e-05,0.0014169295318424702,-0.012613113038241863,3.1525001525878906
8555,279.2243078053143,0.8953104615211487,-0.04477483034133911,9.805164337158203,-1.2108706869184971e-05,-0.000754702661652118,0.01255352608859539,3.152625322341919
8556,279.27430780605937,0.7675512433052063,0.04173266887664795,9.813203811645508,1.0905088856816292e-05,0.0014155233511701226,-0.012423773296177387,3.1525001525878906
8557,279.3243078068044,0.8668634295463562,-0.044464945793151855,9.805181503295898,-1.0774005204439163e-05,-0.0007577606593258679,0.012359940446913242,3.152625322341919
8558,279.3743078075495,0.7394757866859436,0.04703414440155029,9.813332557678223,9.340932592749596e-06,0.0014087570598348975,-0.012235269881784916,3.1525001525878906
8559,279.42430780829454,0.837742030620575,-0.04914778470993042,9.805197715759277,-1.042999792844057e-05,-0.0007645767764188349,0.012168966233730316,3.152625322341919
8560,279.4743078090396,0.7120295763015747,0.05232900381088257,9.813146591186523,8.839648216962814e-06,0.0014003124088048935,-0.01204630732536316,3.15250563621521
8561,279.52430780978466,0.8110747933387756,-0.058857858180999756,9.805481910705566,-7.962808012962341e-06,-0.0007736349361948669,0.011977431364357471,3.152630567550659
8562,279.5743078105297,0.6872067451477051,0.06759607791900635,9.813072204589844,8.168746717274189e-06,0.0013770636869594455,-0.011851283721625805,3.15250563621521
8563,279.6243078112748,0.7923011779785156,-0.06365424394607544,9.805130958557129,-9.189941920340061e-06,-0.0008247760124504566,0.01177230291068554,3.152625322341919
8564,279.67430781201983,0.6733014583587646,0.047742247581481934,9.812983512878418,7.737195119261742e-06,0.0012990200193598866,-0.011641666293144226,3.15250563621521
8565,279.7243078127649,0.7854966521263123,-0.038579702377319336,9.805153846740723,-7.417518645524979e-06,-0.0009163874201476574,0.011554276570677757,3.152625322341919
8566,279.77430781350995,0.6702207326889038,0.03777211904525757,9.81287956237793,5.098874680697918e-06,0.0012054952094331384,-0.011419753544032574,3.1525166034698486
8567,279.824307814255,0.7854359745979309,-0.03357994556427002,9.804889678955078,-7.695634849369526e-06,-0.0010047692339867353,0.011325138621032238,3.152630567550659
8568,279.87430781500007,0.6722230315208435,0.027747273445129395,9.813079833984375,4.916335456073284e-06,0.0011293472489342093,-0.011187379248440266,3.1525111198425293
8569,279.9243078157451,0.78919917345047,-0.028621315956115723,9.80516242980957,-4.4050393626093864e-06,-0.0010689320042729378,0.01108643226325512,3.152630567550659
8570,279.9743078164902,0.6772623062133789,0.03269118070602417,9.813115119934082,2.189655788242817e-06,0.0010782283497974277,-0.010944141075015068,3.152522087097168
8571,280.02430781723524,0.7925342321395874,-0.038658082485198975,9.805315971374512,-2.4568289518356323e-06,-0.0011105447774752975,0.010837096720933914,3.152630567550659
8572,280.0743078179803,0.6823983788490295,0.04263436794281006,9.81314754486084,1.618056558072567e-06,0.0010475891176611185,-0.010692293755710125,3.152522087097168
8573,280.12430781872536,0.7987123727798462,-0.048726022243499756,9.805307388305664,3.2992102205753326e-07,-0.0011341505451127887,0.010578632354736328,3.152630567550659
8574,280.1743078194704,0.6879225373268127,0.057573914527893066,9.813297271728516,-1.548323780298233e-08,0.0010306864278391004,-0.010429594665765762,3.1525166034698486
8575,280.2243078202155,0.8059002757072449,-0.05380415916442871,9.80533504486084,5.78584149479866e-07,-0.0011485641589388251,0.010310125537216663,3.1526198387145996
8576,280.27430782096053,0.6937568187713623,0.04250824451446533,9.813365936279297,-1.728883944451809e-06,0.0010220411932095885,-0.010156986303627491,3.152522087097168
8577,280.3243078217056,0.8114432692527771,-0.03886348009109497,9.805170059204102,2.0863953977823257e-06,-0.0011572428047657013,0.010031092911958694,3.152625322341919
8578,280.37430782245065,0.7013231515884399,0.04242473840713501,9.813471794128418,-4.330184310674667e-06,0.001016699825413525,-0.009873785078525543,3.152522087097168
8579,280.4243078231957,0.8180734515190125,-0.03893536329269409,9.805315017700195,5.604117177426815e-06,-0.0011628748616203666,0.009742007590830326,3.1526198387145996
8580,280.47430782394076,0.7072257995605469,0.03235858678817749,9.81326675415039,-5.380366928875446e-06,0.0010138292564079165,-0.009579227305948734,3.152522087097168
8581,280.5243078246858,0.8260695338249207,-0.02902132272720337,9.805418014526367,6.122514605522156e-06,-0.0011665659258142114,0.009440774098038673,3.152625322341919
8582,280.5743078254309,0.7141729593276978,0.03228187561035156,9.813294410705566,-6.418791599571705e-06,0.0010113103780895472,-0.009273446165025234,3.1525330543518066
8583,280.62430782617594,0.8322858214378357,-0.03908860683441162,9.805289268493652,7.3534902185201645e-06,-0.0011704693315550685,0.009128172881901264,3.152625322341919
8584,280.674307826921,0.7221194505691528,0.03719437122344971,9.813321113586426,-8.406932465732098e-06,0.0010102998930960894,-0.008955777622759342,3.1525275707244873
8585,280.72430782766605,0.8396087884902954,-0.034167468547821045,9.805315971374512,8.363625966012478e-06,-0.001174527918919921,0.008803953416645527,3.1526198387145996
8586,280.7743078284111,0.7290211319923401,0.03211808204650879,9.813230514526367,-9.003560990095139e-06,0.001008791965432465,-0.008626111783087254,3.152538537979126
8587,280.82430782915617,0.8471351861953735,-0.039248764514923096,9.805379867553711,9.487615898251534e-06,-0.0011777887120842934,0.008467280305922031,3.1526198387145996
8588,280.8743078299012,0.7370792627334595,0.04703003168106079,9.813178062438965,-9.576207958161831e-06,0.0010076138423755765,-0.008283751085400581,3.152538537979126
8589,280.9243078306463,0.8549764156341553,-0.04433339834213257,9.80544376373291,1.023407094180584e-05,-0.0011816166806966066,0.008117787539958954,3.1526198387145996
8590,280.97430783139134,0.7446107268333435,0.0419466495513916,9.813087463378906,-1.0721269063651562e-05,0.0010060092899948359,-0.007928387261927128,3.152538537979126
8591,281.0243078321364,0.8632975816726685,-0.03442257642745972,9.805389404296875,1.0496005415916443e-05,-0.0011854510521516204,0.007755140773952007,3.1526143550872803
8592,281.07430783288146,0.7526041865348816,0.021856963634490967,9.813151359558105,-1.1340365745127201e-05,0.0010039790067821741,-0.007559781428426504,3.152538537979126
8593,281.1243078336265,0.8716774582862854,-0.019511759281158447,9.80533504486084,1.1048628948628902e-05,-0.0011875698110088706,0.0073738847859203815,3.1526198387145996
8594,281.1743078343716,0.7608758807182312,0.02676546573638916,9.813136100769043,-1.1469703167676926e-05,0.0009930997621268034,-0.007147924974560738,3.152538537979126
8595,281.22430783511663,0.8792130947113037,-0.024592816829681396,9.805319786071777,1.235294621437788e-05,-0.0011669613886624575,0.006954510696232319,3.15260910987854
8596,281.2743078358617,0.7701787352561951,0.011662065982818604,9.813277244567871,-1.251528738066554e-05,0.0009629424894228578,-0.006754456553608179,3.1525492668151855
8597,281.32430783660675,0.8861878514289856,-0.009665906429290771,9.805188179016113,1.196784432977438e-05,-0.0011386875994503498,0.006561955437064171,3.15260910987854
8598,281.3743078373518,0.7809560298919678,0.01654350757598877,9.813102722167969,-1.1199619621038437e-05,0.0009294910705648363,-0.006352195516228676,3.1525492668151855
8599,281.42430783809687,0.893572211265564,-0.01474541425704956,9.805485725402832,1.3026641681790352e-05,-0.0011123275617137551,0.006151961628347635,3.15260910987854
8600,281.4743078388419,0.7914672493934631,0.011427462100982666,9.812772750854492,-1.0891759302467108e-05,0.0008944268920458853,-0.005934375803917646,3.1525492668151855
8601,281.524307839587,0.9015376567840576,-0.009830474853515625,9.805468559265137,1.0690069757401943e-05,-0.0010846089571714401,0.005725170485675335,3.15260910987854
8602,281.57430784033204,0.8027661442756653,0.006302058696746826,9.812949180603027,-1.130677992478013e-05,0.0008593402453698218,-0.005500074476003647,3.1525492668151855
8603,281.6243078410771,0.9088276028633118,-0.009907841682434082,9.805413246154785,1.2120697647333145e-05,-0.0010554364416748285,0.005281285382807255,3.15260910987854
8604,281.67430784182216,0.8143877983093262,0.016174733638763428,9.812850952148438,-1.1543044820427895e-05,0.000823447247967124,-0.005047961138188839,3.152560234069824
8605,281.7243078425672,0.9170024991035461,-0.01499474048614502,9.805590629577637,1.086946576833725e-05,-0.0010259244590997696,0.00481904111802578,3.15260910987854
8606,281.7743078433123,0.8256929516792297,0.01104956865310669,9.812479972839355,-1.0632909834384918e-05,0.000786936841905117,-0.0045769913122057915,3.152560234069824
8607,281.82430784405733,0.925603449344635,-0.010085821151733398,9.80588436126709,1.0581687092781067e-05,-0.0009955187560990453,0.004337341524660587,3.1526036262512207
8608,281.8743078448024,0.8379944562911987,0.01091378927230835,9.81234073638916,-9.970623068511486e-06,0.0007396209402941167,-0.0040786718018352985,3.1525657176971436
8609,281.92430784554745,0.9346203207969666,-0.010181963443756104,9.805904388427734,8.89867078512907e-06,-0.00094492023345083,0.0038339714519679546,3.1526036262512207
8610,281.9743078462925,0.8518649935722351,0.01076042652130127,9.812121391296387,-7.652619387954473e-06,0.0006679901853203773,-0.003573967842385173,3.152560234069824
8611,282.02430784703756,0.941713273525238,-0.015257000923156738,9.806199073791504,8.748320396989584e-06,-0.0008767565013840795,0.0033142014872282743,3.1526036262512207
8612,282.0743078477826,0.866260290145874,0.015601813793182373,9.81190013885498,-6.728514563292265e-06,0.000596917700022459,-0.00304203643463552,3.152570962905884
8613,282.1243078485277,0.9489712715148926,-0.005332589149475098,9.806297302246094,6.271584425121546e-06,-0.0008077636011876166,0.0027651519048959017,3.152592658996582
8614,282.17430784927274,0.8811429142951965,0.0004360079765319824,9.811639785766602,-5.615293048322201e-06,0.0005199208972044289,-0.002476177643984556,3.1525657176971436
8615,282.2243078500178,0.9564353823661804,-0.005410969257354736,9.80666732788086,4.558300133794546e-06,-0.0007373432745225728,0.002176179550588131,3.152587413787842
8616,282.27430785076285,0.8970270156860352,0.005260944366455078,9.811222076416016,-4.321016604080796e-06,0.0004392698174342513,-0.001860584830865264,3.152570962905884
8617,282.3243078515079,0.9642946720123291,-0.005492746829986572,9.80692195892334,4.545319825410843e-06,-0.000666334293782711,0.0015210866695269942,3.152592658996582
8618,282.37430785225297,0.913985013961792,7.277727127075195e-05,9.810956954956055,-3.281806129962206e-06,0.00035230876528657973,-0.0011479801032692194,3.152570962905884
8619,282.424307852998,0.9738123416900635,0.009409070014953613,9.806976318359375,1.575099304318428e-06,-0.0005959002883173525,0.0007183747948147357,3.1525819301605225
8620,282.4743078537431,0.9301886558532715,-0.010107934474945068,9.810809135437012,-3.6496203392744064e-07,0.0002782844239845872,-0.00034571264404803514,3.152576446533203
8621,282.52430785448814,0.9747915863990784,0.009402334690093994,9.807705879211426,1.570413587614894e-06,-0.00046719738747924566,0.0001230134948855266,3.1525819301605225
8622,282.5743078552332,0.9317651987075806,-0.010125994682312012,9.81068229675293,-5.730544216930866e-07,0.000275064492598176,-3.748306698980741e-05,3.1525819301605225
8623,282.62430785597826,0.9601051211357117,0.00956493616104126,9.808303833007812,8.186907507479191e-07,-0.00027369961026124656,3.7650493140972685e-06,3.1525819301605225
8624,282.6743078567233,0.9170645475387573,-0.009963512420654297,9.810699462890625,1.1070515029132366e-06,0.00032826425740495324,-5.304381829773774e-06,3.152576446533203
8625,282.7243078574684,0.9303679466247559,0.009890913963317871,9.8087739944458,8.405950211454183e-07,-5.483196582645178e-05,-3.934566848329268e-06,3.152576446533203
8626,282.77430785821343,0.8917011022567749,-0.009686410427093506,9.810349464416504,1.855863956734538e-06,0.00038014957681298256,-4.170786723989295e-06,3.152576446533203
8627,282.8243078589585,0.8946765661239624,0.010280728340148926,9.808987617492676,-5.321635399013758e-08,0.00012725441774819046,-4.15220392824267e-06,3.152576446533203
8628,282.87430785970355,0.8625400066375732,-0.00936877727508545,9.809972763061523,2.2354652173817158e-07,0.000396460120100528,-4.0807926779962145e-06,3.1525819301605225
8629,282.9243078604486,0.858035147190094,0.010680317878723145,9.80897331237793,4.362373147159815e-07,0.00025195605121552944,-4.066671863256488e-06,3.1525819301605225
8630,282.97430786119367,0.8274667859077454,-0.01398688554763794,9.831014633178711,6.523914635181427e-07,0.0006079411250539124,-3.9003921301628e-06,3.1525819301605225
8631,283.0243078619387,0.6006932258605957,0.013498663902282715,9.853514671325684,8.814968168735504e-07,0.005936384666711092,-6.172791472636163e-06,3.1525819301605225
8632,283.0743078626838,1.0180089473724365,-0.016115665435791016,9.771614074707031,2.4124514311552048e-05,-0.006140919867902994,0.003763015614822507,3.15260910987854
8633,283.12430786342884,-0.5074281692504883,-0.3674491047859192,9.847865104675293,-0.021678229793906212,0.01533820666372776,-0.10041439533233643,3.150876522064209
8634,283.1743078641739,-0.3195841312408447,-2.305156946182251,9.744904518127441,-0.049355488270521164,0.003990873694419861,-0.21139881014823914,3.143692970275879
8635,283.22430786491896,-0.6475358009338379,-4.337286472320557,9.788454055786133,-0.05957253277301788,0.007999494671821594,-0.39098507165908813,3.1274030208587646
8636,283.274307865664,-0.9590020179748535,-6.097411155700684,9.718177795410156,-0.06795935332775116,0.012621074914932251,-0.5781870484352112,3.102187395095825
8637,283.3243078664091,-1.3203797340393066,-6.74437141418457,9.758763313293457,-0.04154600948095322,0.015148542821407318,-0.704217255115509,3.069173574447632
8638,283.37430786715413,-0.8375554084777832,-6.291583061218262,9.725442886352539,-0.014860814437270164,0.013743200339376926,-0.764967679977417,3.03195858001709
8639,283.4243078678992,-0.5391445159912109,-5.5449395179748535,9.729966163635254,0.0012960541062057018,0.012948577292263508,-0.7999626398086548,2.992572546005249
8640,283.47430786864425,-0.32291626930236816,-4.99979305267334,9.736810684204102,0.008736979216337204,0.011008832603693008,-0.8143323659896851,2.9520986080169678
8641,283.5243078693893,-0.2553894519805908,-4.655099391937256,9.746858596801758,0.011051913723349571,0.010736591182649136,-0.8273959755897522,2.9109671115875244
8642,283.57430787013436,-0.16805100440979004,-4.451066493988037,9.75026798248291,0.010573968291282654,0.009459477849304676,-0.831288754940033,2.86946964263916
8643,283.6243078708794,-0.1748180389404297,-4.347742080688477,9.75639820098877,0.009016231633722782,0.009752978570759296,-0.8392338156700134,2.8276584148406982
8644,283.6743078716245,-0.12869882583618164,-4.316572189331055,9.75683307647705,0.007042131386697292,0.00894924346357584,-0.8407188057899475,2.785648822784424
8645,283.72430787236954,-0.1579575538635254,-4.315674304962158,9.760505676269531,0.005239824764430523,0.009526796638965607,-0.8471686840057373,2.7434144020080566
8646,283.7743078731146,0.8332657814025879,-3.4276540279388428,9.80685806274414,0.06824149191379547,-0.006166018545627594,-0.6832118034362793,2.7048354148864746
8647,283.82430787385965,-0.1446310579776764,0.47286367416381836,9.846846580505371,0.09849411994218826,0.012661844491958618,-0.5518487691879272,2.6750741004943848
8648,283.8743078746047,-0.2396695613861084,2.627963066101074,9.74634075164795,0.08877474069595337,-0.011858019977807999,-0.27202263474464417,2.656550168991089
8649,283.92430787534977,1.0426775217056274,3.080538272857666,9.765691757202148,0.03454902768135071,0.003843940794467926,-0.2025587409734726,2.6467394828796387
8650,283.9743078760948,-0.6269752383232117,1.682505488395691,9.847509384155273,0.004268570803105831,-0.0023275744169950485,-0.04984384402632713,2.6412675380706787
8651,284.0243078768399,-1.23956298828125,0.5647573471069336,9.813003540039062,-0.04247764125466347,-0.002826882526278496,-0.13190561532974243,2.6354994773864746
8652,284.07430787758494,1.982771873474121,-2.203336477279663,9.713520050048828,-0.07328424602746964,-0.014352146536111832,-0.3012683689594269,2.6246328353881836
8653,284.12430787833,-0.9919841289520264,-3.9275078773498535,9.901000022888184,-0.048948198556900024,0.015516353771090508,-0.32659265398979187,2.6084675788879395
8654,284.17430787907506,-1.8396841287612915,-4.364463806152344,9.781840324401855,-0.07315289974212646,0.007812993600964546,-0.5485648512840271,2.5853893756866455
8655,284.2243078798201,-0.23418426513671875,-7.036752700805664,9.646978378295898,-0.06442094594240189,0.007241388782858849,-0.7022190093994141,2.5529544353485107
8656,284.2743078805652,0.014663934707641602,-6.853870391845703,9.768420219421387,-0.03937458619475365,0.009165298193693161,-0.7883632779121399,2.5150647163391113
8657,284.32430788131023,0.059339046478271484,-6.0181660652160645,9.761397361755371,-0.0005893232300877571,0.010168095119297504,-0.8372966051101685,2.4740517139434814
8658,284.3743078820553,0.015734434127807617,-5.363129615783691,9.755569458007812,0.009606242179870605,0.01345839910209179,-0.8075199127197266,2.4319140911102295
8659,284.42430788280035,-1.1343897581100464,-3.8242156505584717,9.78376579284668,0.018770722672343254,0.014661973342299461,-0.8361743688583374,2.3896982669830322
8660,284.4743078835454,-0.480175256729126,-4.281562805175781,9.726951599121094,-0.004041804000735283,0.009321150369942188,-0.8474271893501282,2.3471128940582275
8661,284.52430788429047,0.0947994589805603,-3.8415586948394775,9.762112617492676,0.06238790228962898,0.008655363693833351,-0.8197354078292847,2.3063645362854004
8662,284.5743078850355,-0.6695229411125183,-0.6132357716560364,9.830859184265137,0.09956106543540955,0.005621097981929779,-0.4549415409564972,2.275972366333008
8663,284.6243078857806,-0.8177468776702881,2.4153802394866943,9.775164604187012,0.08666221797466278,-0.005523832514882088,-0.30238181352615356,2.255366325378418
8664,284.67430788652564,2.1803829669952393,2.222269058227539,9.703315734863281,0.04024529457092285,-0.015602541156113148,-0.11129312217235565,2.2453184127807617
8665,284.7243078872707,-0.8382778167724609,1.4275689125061035,9.909197807312012,-0.014112993143498898,0.0075965095311403275,-0.2009602040052414,2.2373573780059814
8666,284.77430788801576,-1.0768376588821411,-1.1471143960952759,9.819310188293457,-0.045632876455783844,-0.0012134024873375893,-0.23338128626346588,2.227749824523926
8667,284.8243078887608,0.8214410543441772,-3.8651320934295654,9.739413261413574,-0.08863364905118942,0.0018670903518795967,-0.4477982521057129,2.209836721420288
8668,284.87430788950587,-0.4010128378868103,-5.621909141540527,9.789080619812012,-0.04856136068701744,0.00597791001200676,-0.5672365427017212,2.1837432384490967
8669,284.92430789025093,-0.6517687439918518,-6.397624969482422,9.752062797546387,-0.06627162545919418,0.006953682284802198,-0.7269203066825867,2.150017261505127
8670,284.974307890996,0.15999066829681396,-6.661813735961914,9.726239204406738,-0.020778372883796692,0.010405042208731174,-0.8745768070220947,2.1099905967712402
8671,285.02430789174105,-0.9087587594985962,-5.324375629425049,9.803150177001953,0.01891329512000084,0.01908380724489689,-0.7461645007133484,2.0696358680725098
8672,285.0743078924861,-0.8584709763526917,-4.1636505126953125,9.7308988571167,-0.01304831076413393,0.017329756170511246,-0.8428900241851807,2.027888536453247
8673,285.12430789323116,0.5564058423042297,-5.794167518615723,9.682714462280273,-0.0014751050621271133,0.016041932627558708,-0.8863199353218079,1.9847952127456665
8674,285.1743078939762,0.07464613020420074,-4.467304229736328,10.045564651489258,0.15057982504367828,0.04966289922595024,-0.7061316967010498,1.944880485534668
8675,285.2243078947213,0.5256736278533936,-0.33632397651672363,10.369248390197754,0.12374382466077805,0.005171755328774452,-0.501308798789978,1.9143489599227905
8676,285.27430789546634,0.45413774251937866,4.665523052215576,8.357595443725586,0.048418425023555756,-0.019807513803243637,-0.21873347461223602,1.8968868255615234
8677,285.3243078962114,-1.589094877243042,0.589913547039032,10.449041366577148,0.13903416693210602,-0.034210920333862305,-0.24003835022449493,1.8853859901428223
8678,285.37430789695645,-1.5477943420410156,0.6678778529167175,10.244525909423828,0.04568029195070267,-0.01625644788146019,-0.02301638200879097,1.8795886039733887
8679,285.4243078977015,-0.7241250872612,1.8828284740447998,9.529155731201172,-0.16507020592689514,0.05141795054078102,-0.10192867368459702,1.8750357627868652
8680,285.47430789844657,2.0526421070098877,0.679918110370636,8.984636306762695,-0.07193917036056519,0.008075227960944176,-0.13124234974384308,1.870356559753418
8681,285.5243078991916,1.982194423675537,-3.5538270473480225,10.007355690002441,-0.05081222206354141,-0.001459726714529097,-0.1911810040473938,1.8607033491134644
8682,285.5743078999367,-2.1268997192382812,-3.515493392944336,10.129055976867676,-0.044045064598321915,0.01928091235458851,-0.38132038712501526,1.8454694747924805
8683,285.62430790068174,-1.7659584283828735,-4.779498100280762,9.857327461242676,-0.07442227751016617,0.0072205886244773865,-0.5417787432670593,1.8231109380722046
8684,285.6743079014268,0.14266131818294525,-7.139617443084717,9.75457763671875,-0.05807213485240936,0.007798271719366312,-0.6777835488319397,1.790318250656128
8685,285.72430790217186,-0.34548020362854004,-6.3828887939453125,9.740564346313477,-0.027109913527965546,0.0033092170488089323,-0.7768851518630981,1.7526237964630127
8686,285.7743079029169,0.22024765610694885,-6.075974941253662,9.727273941040039,-0.011687029153108597,0.008248355239629745,-0.8286426663398743,1.7112665176391602
8687,285.824307903662,-0.04603186622262001,-5.179247856140137,9.788602828979492,0.02667868696153164,0.016733959317207336,-0.8320380449295044,1.6684966087341309
8688,285.87430790440703,-0.5547030568122864,-5.076940059661865,10.55713939666748,0.02197721041738987,0.030803833156824112,-0.8304831981658936,1.627069115638733
8689,285.9243079051521,-0.7961107492446899,-3.411454677581787,9.063838005065918,-0.0423198826611042,-0.019808748736977577,-0.9017382264137268,1.5839107036590576
8690,285.97430790589715,-1.524316430091858,-3.7669472694396973,9.058859825134277,-0.021781308576464653,-0.005438132211565971,-0.8615527749061584,1.5421161651611328
8691,286.0243079066422,1.5857707262039185,-4.781929016113281,9.964090347290039,0.05561212822794914,-0.00429213372990489,-0.6675975322723389,1.5025874376296997
8692,286.07430790738727,-0.0969010442495346,-0.4948330819606781,10.031651496887207,0.1003134697675705,0.004702448844909668,-0.6020892858505249,1.4707744121551514
8693,286.1243079081323,-1.0219231843948364,1.729689121246338,9.935615539550781,0.07380963861942291,0.004272807855159044,-0.26021766662597656,1.4512219429016113
8694,286.1743079088774,-1.219789981842041,2.272331953048706,9.845609664916992,0.03865059092640877,0.004847876261919737,-0.28602689504623413,1.4376745223999023
8695,286.22430790962244,-0.4458290636539459,0.9922997355461121,9.753875732421875,0.01946227252483368,-0.009713252075016499,-0.1127738282084465,1.430679440498352
8696,286.2743079103675,3.292390823364258,0.9292169809341431,9.680773735046387,0.005672808270901442,-0.018832460045814514,-0.0606255978345871,1.4269318580627441
8697,286.32430791111256,0.8044053316116333,0.5941961407661438,9.904230117797852,-0.0051264772191643715,-0.0005676124128513038,-0.055240873247385025,1.4245339632034302
8698,286.3743079118576,-0.9786818623542786,0.08864748477935791,9.902220726013184,-0.006901688873767853,0.006034696474671364,-0.002910608658567071,1.423348307609558
8699,286.42430791260267,-1.0759748220443726,0.10273667424917221,9.830513000488281,-0.006380881182849407,0.007076829671859741,-0.033977098762989044,1.4222936630249023
8700,286.47430791334773,-1.0860275030136108,-0.0908316969871521,9.800676345825195,-0.005507520865648985,0.005886581260710955,0.011345703154802322,1.4219650030136108
8701,286.5243079140928,-1.0168720483779907,0.03615567088127136,9.79140567779541,-0.004246894735842943,0.0041023301891982555,-0.025122130289673805,1.4214420318603516
8702,286.57430791483785,1.1588445901870728,-0.11740066111087799,9.679505348205566,-0.003462349297478795,-0.010953659191727638,-0.008256358094513416,1.4214537143707275
8703,286.6243079155829,3.011234998703003,0.42922243475914,9.765388488769531,0.022440209984779358,-0.01208884920924902,0.10812386125326157,1.4234271049499512
8704,286.67430791632796,-1.3830434083938599,1.9374256134033203,9.970296859741211,0.0405355729162693,0.014180071651935577,0.12208963185548782,1.4290496110916138
8705,286.724307917073,-1.613878846168518,3.126898765563965,9.816230773925781,0.05164793133735657,0.006010724231600761,0.3199450969696045,1.4415957927703857
8706,286.7743079178181,0.2539832890033722,5.611239433288574,9.694568634033203,0.08834283798933029,0.010723096318542957,0.5930402278900146,1.4658608436584473
8707,286.82430791856314,-0.3001558482646942,6.858219623565674,9.73694896697998,0.01834678091108799,0.010416748933494091,0.6531622409820557,1.498979926109314
8708,286.8743079193082,-1.114680290222168,5.5404462814331055,9.7432279586792,0.030383333563804626,0.015899673104286194,0.789377748966217,1.5363738536834717
8709,286.92430792005325,0.5190224051475525,5.8384904861450195,9.718284606933594,-0.013327044434845448,0.01031394861638546,0.7845078110694885,1.5772539377212524
8710,286.9743079207983,-0.7779513001441956,4.7473673820495605,9.75418758392334,0.009452668949961662,0.015941742807626724,0.8623238801956177,1.6194533109664917
8711,287.02430792154337,0.5388287305831909,5.242163181304932,9.736139297485352,-0.020714281126856804,0.009913865476846695,0.8263272047042847,1.662885069847107
8712,287.0743079222884,-1.8697926998138428,3.7465553283691406,9.845398902893066,-0.026108969002962112,0.02408141829073429,0.8701456785202026,1.7055082321166992
8713,287.1243079230335,1.2893288135528564,3.8280718326568604,9.620835304260254,-0.04986531287431717,-0.011540775187313557,0.715217649936676,1.744512915611267
8714,287.17430792377854,0.958159327507019,0.7658029794692993,9.848210334777832,-0.09409371763467789,0.008991147391498089,0.5660322308540344,1.775231122970581
8715,287.2243079245236,-0.6955617666244507,-1.6024589538574219,9.862432479858398,-0.06999731063842773,-0.0017785521922633052,0.27963438630104065,1.7946608066558838
8716,287.27430792526866,-1.5027343034744263,-1.9217033386230469,9.838815689086914,-0.03623872622847557,0.010724701918661594,0.2547038495540619,1.807676911354065
8717,287.3243079260137,-0.7629045248031616,-0.928937554359436,9.771970748901367,-0.014368853531777859,-0.00358213041909039,0.07933399081230164,1.8149982690811157
8718,287.3743079267588,0.6957243084907532,-0.7703003287315369,9.703263282775879,-0.006108923815190792,-0.011326365172863007,0.06486896425485611,1.8199248313903809
8719,287.42430792750383,3.8012430667877197,-0.39012211561203003,9.719801902770996,0.00256230472587049,-0.019279252737760544,0.08656342327594757,1.8224725723266602
8720,287.4743079282489,-0.4485927224159241,-0.3810708224773407,9.976347923278809,-0.01729590632021427,0.009438938461244106,-0.07521460950374603,1.8221426010131836
8721,287.52430792899395,-1.1036252975463867,-1.87508225440979,9.869701385498047,-0.03836967051029205,0.005156436003744602,-0.10733021050691605,1.8176441192626953
8722,287.574307929739,-2.4212489128112793,-2.980790138244629,9.850055694580078,-0.04463961720466614,0.02090664766728878,-0.33151915669441223,1.8055297136306763
8723,287.62430793048406,-0.4157440662384033,-3.7004239559173584,9.660547256469727,0.0023688441142439842,-0.01374744065105915,-0.31814154982566833,1.7892860174179077
8724,287.6743079312291,3.123154401779175,-0.9526488780975342,9.695337295532227,0.06134440004825592,-0.006289921700954437,-0.14176642894744873,1.7776890993118286
8725,287.7243079319742,0.4619811177253723,1.3546053171157837,9.897529602050781,0.0352158285677433,-0.004349577706307173,-0.1668606400489807,1.769934892654419
8726,287.77430793271924,-1.2871544361114502,0.6201007962226868,9.899118423461914,0.018371278420090675,0.01215456798672676,-0.028563035652041435,1.7658029794692993
8727,287.8243079334643,-0.7110148668289185,0.6356116533279419,9.80034065246582,0.009115412831306458,0.00012725272972602397,-0.09414997696876526,1.762468695640564
8728,287.87430793420936,-1.3377256393432617,0.08868340402841568,9.822501182556152,0.0033588644582778215,0.011068154126405716,0.018665818497538567,1.761175513267517
8729,287.9243079349544,-0.630154550075531,0.3080156445503235,9.772469520568848,0.001107119140215218,-0.0029119125101715326,-0.06503359973430634,1.7596198320388794
8730,287.97430793569947,0.9550918936729431,-0.10144252330064774,9.699399948120117,0.00018962482863571495,-0.011755062267184258,-0.012321948073804379,1.759485125541687
8731,288.02430793644453,3.3769137859344482,0.09056445956230164,9.754898071289062,-0.0008280424517579377,-0.013785218819975853,0.0418873205780983,1.7594897747039795
8732,288.0743079371896,-0.8501573801040649,0.17574475705623627,9.96726131439209,-0.0010535515611991286,0.010021263733506203,-0.0502215139567852,1.7588400840759277
8733,288.12430793793465,-0.5644443035125732,-0.15587803721427917,9.83752727508545,-0.0010710650822147727,0.0005444560665637255,0.04521431401371956,1.759188175201416
8734,288.1743079386797,-1.2534246444702148,0.1749272495508194,9.838247299194336,-0.0007571407477371395,0.012669207528233528,-0.049049824476242065,1.7586233615875244
8735,288.22430793942476,-0.5812756419181824,-0.17353779077529907,9.775794982910156,-0.0009026711340993643,-0.0013130606384947896,0.04616502299904823,1.7590289115905762
8736,288.2743079401698,-1.1779597997665405,0.1671280860900879,9.816389083862305,-0.000352732022292912,0.009411926381289959,-0.04835614562034607,1.758500099182129
8737,288.3243079409149,-0.46036818623542786,-0.4984165132045746,9.75417709350586,-0.026239966973662376,-0.004838837776333094,-0.06091655045747757,1.7570339441299438
8738,288.37430794165994,-0.3933044672012329,-2.215701103210449,9.801820755004883,-0.06166350096464157,0.0030508902855217457,-0.20890559256076813,1.749428153038025
8739,288.424307942405,-1.209944486618042,-4.309285640716553,9.770075798034668,-0.0693780705332756,-0.00193046685308218,-0.38358527421951294,1.7342342138290405
8740,288.47430794315005,5.215198040008545,-5.016401767730713,9.55553913116455,0.0026454199105501175,-0.0282049011439085,-0.41956037282943726,1.7126539945602417
8741,288.5243079438951,7.7601799964904785,-1.1726444959640503,9.69986629486084,0.07720563560724258,-0.04001560062170029,-0.2455849051475525,1.696740984916687
8742,288.57430794464017,4.7335357666015625,1.7730352878570557,9.950711250305176,0.04612300917506218,-0.003025559475645423,-0.18895210325717926,1.687343955039978
8743,288.6243079453852,2.220247745513916,1.1002075672149658,9.960504531860352,0.022618655115365982,-0.001916641602292657,-0.051851075142621994,1.6821519136428833
8744,288.6743079461303,0.9821723103523254,0.77310711145401,9.902278900146484,0.008532948791980743,0.016288772225379944,-0.09585580974817276,1.6783093214035034
8745,288.72430794687534,1.380453109741211,0.15762707591056824,9.797425270080566,0.0030808639712631702,0.0037748811300843954,0.00452435901388526,1.6765694618225098
8746,288.7743079476204,0.609927237033844,0.27127504348754883,9.822630882263184,-0.0007619102252647281,0.014967377297580242,-0.061109498143196106,1.674850344657898
8747,288.82430794836546,1.1946271657943726,-0.11725209653377533,9.768016815185547,-0.0012586755910888314,0.0005038973176851869,0.02573491632938385,1.6744186878204346
8748,288.8743079491105,0.5279667973518372,0.1269685924053192,9.81471061706543,-0.002028165850788355,0.01113216858357191,-0.04762518033385277,1.6735113859176636
8749,288.9243079498556,1.1558563709259033,-0.181022509932518,9.771759986877441,-0.0014290190301835537,-0.0026955665089190006,0.03369191288948059,1.6735786199569702
8750,288.97430795060063,0.5095807313919067,0.10210800170898438,9.820829391479492,-0.0014742508064955473,0.008520456030964851,-0.0422678217291832,1.6729851961135864
8751,289.0243079513457,1.1560022830963135,-0.18338178098201752,9.778449058532715,-0.0008372866432182491,-0.004540044814348221,0.036601100116968155,1.6732432842254639
8752,289.07430795209075,0.503950297832489,0.11049139499664307,9.826313972473145,-0.0008254325948655605,0.007154196035116911,-0.04003881290555,1.6727724075317383
8753,289.1243079528358,1.1489986181259155,-0.16912716627120972,9.782896995544434,-0.00034521345514804125,-0.00541759142652154,0.037563636898994446,1.6731024980545044
8754,289.17430795358086,0.514094352722168,0.1174684539437294,9.829075813293457,-0.0004105389816686511,0.006511418614536524,-0.03901240602135658,1.6726807355880737
8755,289.2243079543259,1.1422816514968872,-0.1573803722858429,9.785135269165039,-6.233442400116473e-05,-0.0057897972874343395,0.03776969015598297,1.6730371713638306
8756,289.274307955071,0.5248563289642334,0.12687526643276215,9.830449104309082,-0.00019864791829604656,0.006217062007635832,-0.038448236882686615,1.6726360321044922
8757,289.32430795581604,1.1404012441635132,-0.14971068501472473,9.786365509033203,6.786147423554212e-05,-0.005930220242589712,0.03767916187644005,1.6730009317398071
8758,289.3743079565611,0.5201946496963501,0.13140270113945007,9.830653190612793,-0.00010996654600603506,0.006074485369026661,-0.038054920732975006,1.672609567642212
8759,289.42430795730616,1.1484147310256958,-0.1445455104112625,9.786872863769531,0.00011618764256127179,-0.005973506718873978,0.03747186437249184,1.672976016998291
8760,289.4743079580512,0.5303690433502197,0.132897287607193,9.831113815307617,-7.886868115747347e-05,0.005996093153953552,-0.03772730380296707,1.6725903749465942
8761,289.52430795879627,1.133833885192871,-0.13955064117908478,9.787200927734375,0.00012846126628573984,-0.0059594810009002686,0.03723275661468506,1.6729559898376465
8762,289.57430795954133,0.5303268432617188,0.13262082636356354,9.830997467041016,-7.361097959801555e-05,0.005967619828879833,-0.037441302090883255,1.6725744009017944
8763,289.6243079602864,1.1314254999160767,-0.13831767439842224,9.787480354309082,0.0001224956358782947,-0.005907327868044376,0.036989372223615646,1.6729382276535034
8764,289.67430796103145,0.520381510257721,0.13397929072380066,9.831046104431152,-7.567020657006651e-05,0.00596155459061265,-0.03717263415455818,1.6725598573684692
8765,289.7243079617765,1.1290241479873657,-0.13677984476089478,9.787800788879395,0.00011390169674996287,-0.005844590254127979,0.03674725070595741,1.672921895980835
8766,289.77430796252156,0.5127350687980652,0.133522629737854,9.83086109161377,-7.919550989754498e-05,0.005953129846602678,-0.036912329494953156,1.6725465059280396
8767,289.8243079632666,1.11639404296875,-0.13671687245368958,9.787781715393066,0.00010591847239993513,-0.005787099711596966,0.0365053191781044,1.6729062795639038
8768,289.8743079640117,0.507491409778595,0.13218404352664948,9.830869674682617,-8.130066271405667e-05,0.0059367031790316105,-0.03665747866034508,1.672533631324768
8769,289.92430796475674,1.099122405052185,-0.13273084163665771,9.787652015686035,9.772826888365671e-05,-0.00573797058314085,0.03626390919089317,1.67289137840271
8770,289.9743079655018,0.4972291886806488,0.13103732466697693,9.830883026123047,-8.12010548543185e-05,0.005912239663302898,-0.036402471363544464,1.672521710395813
8771,290.02430796624685,1.0962848663330078,-0.1349414587020874,9.787939071655273,9.100857278099284e-05,-0.005694597959518433,0.03602355718612671,1.672877311706543
8772,290.0743079669919,0.489667683839798,0.13180986046791077,9.830504417419434,-8.111094211926684e-05,0.00588426785543561,-0.03615114465355873,1.6725102663040161
8773,290.12430796773697,1.0786786079406738,-0.1340721994638443,9.788162231445312,8.678599260747433e-05,-0.005655199289321899,0.03578410670161247,1.6728637218475342
8774,290.174307968482,0.48449480533599854,0.13139373064041138,9.830358505249023,-7.838194869691506e-05,0.005850397516041994,-0.03590066358447075,1.672499418258667
8775,290.2243079692271,1.063653588294983,-0.1325274407863617,9.788422584533691,8.279949543066323e-05,-0.00561880087479949,0.035545311868190765,1.6728506088256836
8776,290.27430796997214,0.4741232991218567,0.1293073296546936,9.830059051513672,-7.635021029273048e-05,0.005815762560814619,-0.03565111756324768,1.672489047050476
8777,290.3243079707172,1.0561494827270508,-0.13112682104110718,9.788558006286621,7.731952064204961e-05,-0.005581894423812628,0.035307303071022034,1.6728382110595703
8778,290.37430797146226,0.46639788150787354,0.12852045893669128,9.830070495605469,-7.359169103438035e-05,0.0057802144438028336,-0.035403214395046234,1.6724793910980225
8779,290.4243079722073,1.0486146211624146,-0.13003820180892944,9.788576126098633,7.416364678647369e-05,-0.005546702072024345,0.03506946936249733,1.6728262901306152
8780,290.4743079729524,0.4536042809486389,0.12730777263641357,9.829968452453613,-7.172288314905018e-05,0.005744074936956167,-0.03515620157122612,1.6724700927734375
8781,290.52430797369743,1.0335255861282349,-0.1291191279888153,9.788835525512695,7.128782453946769e-05,-0.005512305535376072,0.03483208268880844,1.6728148460388184
8782,290.5743079744425,0.4508214294910431,0.12570150196552277,9.829937934875488,-6.779243994969875e-05,0.005708151962608099,-0.034911271184682846,1.6724612712860107
8783,290.62430797518755,1.0210468769073486,-0.12721224129199982,9.788702011108398,6.837341061327606e-05,-0.0054779876954853535,0.03459657356142998,1.6728038787841797
8784,290.6743079759326,0.4381866753101349,0.12604224681854248,9.829952239990234,-6.48479544906877e-05,0.0056717791594564915,-0.0346670001745224,1.6724528074264526
8785,290.72430797667766,1.0133880376815796,-0.12736967206001282,9.788875579833984,6.612698052776977e-05,-0.005442825146019459,0.03436104208230972,1.6727932691574097
8786,290.7743079774227,0.43288859724998474,0.12437795847654343,9.829765319824219,-6.127378583187237e-05,0.005635776557028294,-0.034424085170030594,1.6724448204040527
8787,290.8243079781678,0.9983012080192566,-0.12645304203033447,9.789055824279785,6.372066854964942e-05,-0.005408200901001692,0.034126054495573044,1.6727830171585083
8788,290.87430797891284,0.422805517911911,0.1250862032175064,9.82973861694336,-5.8448775234865025e-05,0.0055986796505749226,-0.034182846546173096,1.6724371910095215
8789,290.9243079796579,0.9907057285308838,-0.12598998844623566,9.789151191711426,5.833583782077767e-05,-0.005373755469918251,0.03389353305101395,1.6727732419967651
8790,290.97430798040295,0.4149910807609558,0.1233639046549797,9.82951545715332,-5.651654282701202e-05,0.005562582053244114,-0.03394326940178871,1.6724299192428589
8791,291.024307981148,0.9781375527381897,-0.12501874566078186,9.78936767578125,5.643094118568115e-05,-0.005339174531400204,0.0336606465280056,1.6727638244628906
8792,291.07430798189307,0.4097895920276642,0.12263118475675583,9.829484939575195,-5.551884896703996e-05,0.005526446271687746,-0.033704932779073715,1.672423005104065
8793,291.12430798263813,0.9680550694465637,-0.12430224567651749,9.78950309753418,5.367427002056502e-05,-0.005304631777107716,0.03342944383621216,1.6727546453475952
8794,291.1743079833832,0.39709728956222534,0.12234853208065033,9.829225540161133,-5.189753937884234e-05,0.005490511655807495,-0.033468231558799744,1.67241632938385
8795,291.22430798412825,0.9604960680007935,-0.12352964282035828,9.789714813232422,5.054710345575586e-05,-0.005271138623356819,0.03319969400763512,1.6727458238601685
8796,291.2743079848733,0.389411062002182,0.12186918407678604,9.829156875610352,-4.9922873586183414e-05,0.005453959573060274,-0.03323287144303322,1.672410011291504
8797,291.32430798561836,0.9505112171173096,-0.12188130617141724,9.789850234985352,5.0603939598659053e-05,-0.005236276891082525,0.032970573753118515,1.6727372407913208
8798,291.3743079863634,0.3814699947834015,0.11890213191509247,9.828892707824707,-4.7418507165275514e-05,0.00541800307109952,-0.03299843892455101,1.6724039316177368
8799,291.4243079871085,0.9405617713928223,-0.11992291361093521,9.790218353271484,4.706754407379776e-05,-0.005203288048505783,0.03274460881948471,1.6727290153503418
8800,291.47430798785354,0.3738202154636383,0.11873316764831543,9.828746795654297,-4.445252852747217e-05,0.005381907802075148,-0.032766275107860565,1.6723982095718384
8801,291.5243079885986,0.9227386116981506,-0.1212432011961937,9.790164947509766,4.431421621120535e-05,-0.005169101990759373,0.03251846879720688,1.6727211475372314
8802,291.57430798934365,0.3762751817703247,0.11910424381494522,9.82874870300293,-4.134597475058399e-05,0.005346556659787893,-0.03253622725605965,1.672392725944519
8803,291.6243079900887,0.9127253890037537,-0.119907446205616,9.790376663208008,4.136256757192314e-05,-0.005135376937687397,0.03229297325015068,1.6727135181427002
8804,291.67430799083377,0.3610056936740875,0.11814101785421371,9.828606605529785,-3.904903496732004e-05,0.005310914944857359,-0.03230764716863632,1.6723873615264893
8805,291.7243079915788,0.9077212810516357,-0.11876967549324036,9.790428161621094,3.935675340471789e-05,-0.005101984366774559,0.03206945210695267,1.6727060079574585
8806,291.7743079923239,0.3533243238925934,0.11766038089990616,9.828497886657715,-3.766038571484387e-05,0.005275669042021036,-0.032080672681331635,1.6723823547363281
8807,291.82430799306894,0.8974877595901489,-0.11961062252521515,9.790639877319336,3.821927384706214e-05,-0.005067893303930759,0.03184742480516434,1.6726988554000854
8808,291.874307993814,0.35052335262298584,0.11574016511440277,9.828424453735352,-3.599391129682772e-05,0.005240519065409899,-0.03185462951660156,1.6723774671554565
8809,291.92430799455906,0.8776590824127197,-0.11601509153842926,9.790663719177246,3.559992182999849e-05,-0.005035244394093752,0.03162709251046181,1.672691822052002
8810,291.9743079953041,0.3478187322616577,0.11475226283073425,9.828429222106934,-3.493768235784955e-05,0.005204871296882629,-0.03163103386759758,1.672372817993164
8811,292.0243079960492,0.870073676109314,-0.11555689573287964,9.790717124938965,3.2943429687293246e-05,-0.005002199672162533,0.03140823170542717,1.6726850271224976
8812,292.07430799679423,0.3351667523384094,0.11477842181921005,9.828286170959473,-3.103206472587772e-05,0.005169820971786976,-0.031409259885549545,1.6723682880401611
8813,292.1243079975393,0.8649446368217468,-0.11566398292779922,9.79084587097168,3.10837640427053e-05,-0.004969062749296427,0.031191198155283928,1.6726784706115723
8814,292.17430799828435,0.32997626066207886,0.11404381692409515,9.828291893005371,-2.986121762660332e-05,0.0051348889246582985,-0.03118937648832798,1.6723639965057373
8815,292.2243079990294,0.8499650955200195,-0.11382164806127548,9.790982246398926,2.9995622753631324e-05,-0.004935999400913715,0.030974945053458214,1.6726720333099365
8816,292.27430799977446,0.32963427901268005,0.11155853420495987,9.828021049499512,-2.6657202397473156e-05,0.005100422538816929,-0.03097071871161461,1.6723599433898926
8817,292.3243080005195,0.8374409079551697,-0.11254485696554184,9.791155815124512,2.8163854949525557e-05,-0.004903214983642101,0.03076150268316269,1.6726659536361694
8818,292.3743080012646,0.24883586168289185,-0.45135632157325745,9.830720901489258,-0.03793404996395111,0.005911912303417921,-0.11395492404699326,1.6702444553375244
8819,292.42430800200964,0.33847033977508545,-2.8717050552368164,9.79592227935791,-0.06985180824995041,-3.0467836040770635e-05,-0.23418191075325012,1.6613000631332397
8820,292.4743080027547,-0.1820991039276123,-3.6621248722076416,9.805315971374512,0.01681739278137684,0.007282925304025412,-0.2806309163570404,1.6471909284591675
8821,292.52430800349975,0.7761554718017578,-0.9335530996322632,9.776697158813477,0.034084517508745193,-0.004669379908591509,-0.13611990213394165,1.6375977993011475
8822,292.5743080042448,0.25118955969810486,0.2543395161628723,9.821914672851562,0.021556947380304337,0.004602148197591305,-0.142344132065773,1.630686640739441
8823,292.62430800498987,0.7903984189033508,-0.11976638436317444,9.788688659667969,0.011400007642805576,-0.005644277669489384,-0.042737312614917755,1.6266263723373413
8824,292.67430800573493,0.28713470697402954,-0.0719948261976242,9.826895713806152,0.005646334961056709,0.004246396478265524,-0.07872732728719711,1.6234441995620728
8825,292.72430800648,0.7978768944740295,-0.3791904151439667,9.79206657409668,0.0028916816227138042,-0.005475281272083521,-0.0012150253169238567,1.6218656301498413
8826,292.77430800722505,0.29272228479385376,-0.1729435920715332,9.828421592712402,0.001694337697699666,0.004443675745278597,-0.050509750843048096,1.6203407049179077
8827,292.8243080079701,0.7942410111427307,-0.37187016010284424,9.792964935302734,0.0013272191863507032,-0.005166584625840187,0.016875293105840683,1.6198521852493286
8828,292.87430800871516,0.295980304479599,-0.1144343689084053,9.82823371887207,0.001230961992405355,0.004645633976906538,-0.03820779174566269,1.619048833847046
8829,292.9243080094602,0.7858949303627014,-0.29384279251098633,9.792807579040527,0.0012880474096164107,-0.004943280015140772,0.024509061127901077,1.619027853012085
8830,292.9743080102053,0.29476398229599,-0.037251852452754974,9.827696800231934,0.0012791085755452514,0.0047576045617461205,-0.03292188048362732,1.6185314655303955
8831,293.02430801095034,0.7795539498329163,-0.2188093364238739,9.792641639709473,0.001287910738028586,-0.004807972349226475,0.027560895308852196,1.6187046766281128
8832,293.0743080116954,0.20777647197246552,0.5956632494926453,9.830562591552734,0.03993077576160431,0.0058110482059419155,0.057673536241054535,1.6205024719238281
8833,293.12430801244045,0.28062233328819275,2.654247999191284,9.7985200881958,0.07198706269264221,-0.00022827550128567964,0.2877550721168518,1.630096435546875
8834,293.1743080131855,-0.9954267740249634,5.333133697509766,9.810832977294922,0.08705969154834747,0.016383567824959755,0.465300053358078,1.649588704109192
8835,293.22430801393057,-0.3645934760570526,6.045897483825684,9.720675468444824,0.0004914126475341618,0.0029151367489248514,0.5552890300750732,1.676533818244934
8836,293.2743080146756,0.19885201752185822,2.760533094406128,9.779163360595703,-0.06300037354230881,0.006172251887619495,0.3394097089767456,1.6978827714920044
8837,293.3243080154207,0.6935503482818604,0.019517550244927406,9.78104019165039,-0.044880375266075134,-0.005324993748217821,0.2735808789730072,1.712672472000122
8838,293.37430801616574,0.21804289519786835,0.27687084674835205,9.81850528717041,-0.024125322699546814,0.002850433811545372,0.13339763879776,1.722025990486145
8839,293.4243080169108,0.7266982197761536,0.38934436440467834,9.789670944213867,-0.012218563817441463,-0.006552348379045725,0.1361035406589508,1.7286829948425293
8840,293.47430801765586,0.25055113434791565,0.7670620679855347,9.826765060424805,-0.00627466756850481,0.003053427906706929,0.04064082354307175,1.7325655221939087
8841,293.5243080184009,0.7520044445991516,0.5734357833862305,9.7942533493042,-0.0039012301713228226,-0.006015658378601074,0.0745111033320427,1.7355735301971436
8842,293.574308019146,0.2613443434238434,0.7305577993392944,9.82884407043457,-0.0031005041673779488,0.003755884477868676,-6.980160833336413e-05,1.7370328903198242
8843,293.62430801989103,0.7508153319358826,0.42617470026016235,9.79468822479248,-0.003009635955095291,-0.005380426067858934,0.04750662297010422,1.7384405136108398
8844,293.6743080206361,0.26431217789649963,0.5386472940444946,9.828432083129883,-0.003090207464993,0.0042456407099962234,-0.017405301332473755,1.7388540506362915
8845,293.72430802138115,0.7427256107330322,0.23552681505680084,9.794066429138184,-0.003127644769847393,-0.004968537017703056,0.035949062556028366,1.7395790815353394
8846,293.7743080221262,0.2603510618209839,0.36690303683280945,9.82762622833252,-0.0030809093732386827,0.004496261011809111,-0.024462193250656128,1.7395565509796143
8847,293.82430802287126,0.7412726879119873,0.08859404921531677,9.793502807617188,-0.0028955957386642694,-0.00473974272608757,0.031128166243433952,1.7400002479553223
8848,293.8743080236163,0.24939076602458954,0.24672560393810272,9.827192306518555,-0.0026626300532370806,0.004600830376148224,-0.027122536674141884,1.7398045063018799
8849,293.9243080243614,0.7340652346611023,-0.0009649370331317186,9.793108940124512,-0.0023482823744416237,-0.004615378100425005,0.02915620245039463,1.7401378154754639
8850,293.97430802510644,0.2427678257226944,0.1758088767528534,9.826699256896973,-0.0020466328132897615,0.004629448521882296,-0.02797270007431507,1.7398786544799805
8851,294.0243080258515,0.7251861095428467,-0.054709628224372864,9.793252944946289,-0.0017217498971149325,-0.0045431824401021,0.02834070473909378,1.7401713132858276
8852,294.07430802659655,0.24247251451015472,0.13550293445587158,9.826428413391113,-0.0014433470787480474,0.004625196568667889,-0.02811495028436184,1.7398918867111206
8853,294.1243080273416,0.7118709683418274,-0.081723153591156,9.793301582336426,-0.0011715880827978253,-0.004495760425925255,0.027968522161245346,1.7401708364486694
8854,294.17430802808667,0.24193257093429565,0.11669700592756271,9.82617473602295,-0.0009512136457487941,0.0046056099236011505,-0.02800438180565834,1.7398875951766968
8855,294.22430802883173,0.6294488906860352,-0.677916944026947,9.796229362487793,-0.040532272309064865,-0.0034016352146863937,-0.06390771269798279,1.7379372119903564
8856,294.2743080295768,-0.26838791370391846,-2.794001340866089,9.830267906188965,-0.07284080237150192,0.009190435521304607,-0.2895452678203583,1.728134036064148
8857,294.32430803032184,-0.5849329233169556,-5.489853382110596,9.773859024047852,-0.0892234742641449,0.007682520430535078,-0.4806934893131256,1.7081681489944458
8858,294.3743080310669,-1.9684430360794067,-7.569763660430908,9.754446983337402,-0.09294454008340836,0.026043685153126717,-0.7594932913780212,1.675705909729004
8859,294.42430803181196,-2.074399709701538,-9.353645324707031,9.644938468933105,-0.07172631472349167,0.024192072451114655,-0.935894787311554,1.6320699453353882
8860,294.474308032557,-1.4612363576889038,-9.001787185668945,9.61617660522461,0.01169698778539896,0.023910151794552803,-0.9796426296234131,1.583224892616272
8861,294.5243080333021,0.6602638959884644,-5.533536911010742,9.66929817199707,0.09775826334953308,0.0015800116816535592,-0.6896219849586487,1.542090654373169
8862,294.57430803404714,0.24147997796535492,-1.4009208679199219,9.798866271972656,0.08206935971975327,0.00380966579541564,-0.5122935175895691,1.5133227109909058
8863,294.6243080347922,0.645574688911438,-1.0582033395767212,9.773198127746582,0.04681047797203064,-0.008445687592029572,-0.28932949900627136,1.4946666955947876
8864,294.67430803553725,0.1821231245994568,-1.283144235610962,9.812551498413086,0.02525547705590725,0.0001495995238656178,-0.23985353112220764,1.4818408489227295
8865,294.7243080362823,0.7032565474510193,-1.697348952293396,9.787531852722168,0.014428574591875076,-0.008683956228196621,-0.10833322256803513,1.4739259481430054
8866,294.77430803702737,0.2399705946445465,-1.4520432949066162,9.8257474899292,0.010099462233483791,0.0012954649282619357,-0.11733376234769821,1.4683120250701904
8867,294.8243080377724,0.7278481721878052,-1.4830571413040161,9.795378684997559,0.008509431034326553,-0.0070610917173326015,-0.028327349573373795,1.4651747941970825
8868,294.8743080385175,0.24972191452980042,-1.0531123876571655,9.829133033752441,0.00822503212839365,0.002810047473758459,-0.06408043205738068,1.4627188444137573
8869,294.92430803926254,0.6475147008895874,-0.4473404884338379,9.803028106689453,0.04753890261054039,-0.005210848990827799,0.09367799758911133,1.4638395309448242
8870,294.9743080400076,-0.27060064673423767,2.2516584396362305,9.845208168029785,0.08023088425397873,0.007805712055414915,0.23016327619552612,1.4722896814346313
8871,295.02430804075266,0.20853297412395477,3.280447244644165,9.779460906982422,-0.009082730859518051,-0.0034251101315021515,0.2798593044281006,1.486411452293396
8872,295.0743080414977,0.2130817323923111,0.6419834494590759,9.81161117553711,-0.027103399857878685,0.0040298267267644405,0.14396817982196808,1.4962069988250732
8873,295.1243080422428,0.6721924543380737,-0.4300909638404846,9.789692878723145,-0.01543140597641468,-0.0053084734827280045,0.1428387463092804,1.5032804012298584
8874,295.17430804298783,0.21642757952213287,0.005937332287430763,9.824997901916504,-0.00592484325170517,0.0035611912608146667,0.04931521415710449,1.5075616836547852
8875,295.2243080437329,0.6884588599205017,0.04027529060840607,9.79432487487793,-0.0011122750584036112,-0.005298194941133261,0.07897685468196869,1.5108757019042969
8876,295.27430804447795,0.2275814265012741,0.36295565962791443,9.827425003051758,0.0008510184707120061,0.0038805310614407063,0.005919904913753271,1.5126047134399414
8877,295.324308045223,0.6927202939987183,0.19724386930465698,9.794931411743164,0.001215922529809177,-0.00495536532253027,0.049770817160606384,1.5141987800598145
8878,295.37430804596806,0.22487454116344452,0.3889985680580139,9.827484130859375,0.0009421699796803296,0.004182786680757999,-0.013441101647913456,1.5147762298583984
8879,295.4243080467131,0.6907463669776917,0.15253588557243347,9.794561386108398,0.0004362397885415703,-0.00468125194311142,0.03667524829506874,1.5156012773513794
8880,295.4743080474582,0.22337713837623596,0.3127043545246124,9.826793670654297,-4.280456050764769e-05,0.0043512266129255295,-0.02178437076508999,1.5156731605529785
8881,295.52430804820324,0.6829334497451782,0.06964171677827835,9.794005393981934,-0.0004224551375955343,-0.004514320287853479,0.03092474304139614,1.51616370677948
8882,295.5743080489483,0.21911875903606415,0.23309312760829926,9.82632827758789,-0.0006721935933455825,0.004422585945576429,-0.02518628165125847,1.516021966934204
8883,295.62430804969335,0.6753667593002319,0.0014553660294041038,9.79395580291748,-0.0008074075449258089,-0.004415770526975393,0.028442852199077606,1.5163719654083252
8884,295.6743080504384,0.2147882729768753,0.17445792257785797,9.826013565063477,-0.0008481904515065253,0.004440422635525465,-0.02643444575369358,1.5161445140838623
8885,295.72430805118347,0.6690089106559753,-0.04419831186532974,9.79389476776123,-0.0008304965449497104,-0.004354435484856367,0.027369366958737373,1.516438603401184
8886,295.77430805192853,0.2104596346616745,0.13773146271705627,9.825881958007812,-0.0007651000050827861,0.004433744121342897,-0.026780035346746445,1.5161796808242798
8887,295.8243080526736,0.6603318452835083,-0.07045455276966095,9.793707847595215,-0.0006865858449600637,-0.004310908727347851,0.026876993477344513,1.516452431678772
8888,295.87430805341864,0.20525620877742767,0.11675446480512619,9.82581901550293,-0.0005897003575228155,0.004413996823132038,-0.026770416647195816,1.5161844491958618
8889,295.9243080541637,-0.5946382880210876,1.604116678237915,10.519262313842773,0.11576516181230545,0.019672080874443054,0.010713374242186546,1.5161561965942383
8890,295.97430805490876,1.4040607213974,-2.1729655265808105,8.833450317382812,0.017936835065484047,0.015279659070074558,-0.02792654000222683,1.5159006118774414
8891,296.0243080556538,0.46703776717185974,0.49297410249710083,9.862422943115234,0.0021435371600091457,0.0010167056461796165,0.026921508833765984,1.516158938407898
8892,296.0743080563989,0.07188168168067932,0.14870330691337585,9.893328666687012,-0.000167144913575612,0.006683011539280415,-0.026716137304902077,1.5158894062042236
8893,296.12430805714394,0.5685624480247498,-0.1247297152876854,9.847538948059082,-0.0002942424325738102,-0.0034475617576390505,0.026663562282919884,1.516160011291504
8894,296.174308057889,0.1531575620174408,0.06597410142421722,9.863261222839355,-0.00011478958185762167,0.00442292308434844,-0.026307661086320877,1.5159006118774414
8895,296.22430805863405,0.8758628368377686,1.1168336868286133,10.724950790405273,0.05845285952091217,-0.021839618682861328,0.0038740849122405052,1.5150041580200195
8896,296.2743080593791,-0.6856589913368225,-1.3578089475631714,8.632603645324707,0.010348843410611153,-0.007235177792608738,-0.038638003170490265,1.5140166282653809
8897,296.32430806012417,0.7184536457061768,0.03588586673140526,9.88435173034668,0.001948149991221726,-0.01135844737291336,0.018376857042312622,1.5138094425201416
8898,296.3743080608692,0.25177180767059326,-0.01834583468735218,9.89582347869873,0.0008584557217545807,-7.47543072066037e-06,-0.03090822882950306,1.513252854347229
8899,296.4243080616143,0.6629379391670227,-0.2210732400417328,9.846664428710938,0.0006859814166091383,-0.006726284045726061,0.022931920364499092,1.5133274793624878
8900,296.47430806235934,0.2069021612405777,-0.01150033250451088,9.862227439880371,0.0008086143643595278,0.0028036239091306925,-0.027714421972632408,1.5129551887512207
8901,296.5243080631044,0.6323879957199097,-0.17631414532661438,9.819193840026855,0.000802441849373281,-0.0049785408191382885,0.02470395155251026,1.5131453275680542
8902,296.57430806384946,0.18754012882709503,0.033863700926303864,9.840981483459473,0.0008209360530599952,0.0037922647316008806,-0.026335986331105232,1.5128480195999146
8903,296.6243080645945,0.6131460666656494,-0.1390593945980072,9.80400562286377,0.0007465205271728337,-0.004360031336545944,0.025290166959166527,1.5130829811096191
8904,296.6743080653396,0.17499986290931702,0.05953798443078995,9.830360412597656,0.0006963672931306064,0.004098952282220125,-0.025720760226249695,1.512814998626709
8905,296.72430806608463,0.6043503880500793,-0.11510729789733887,9.797377586364746,0.0005905962898395956,-0.004148461390286684,0.02539188601076603,1.5130648612976074
8906,296.7743080668297,0.17086347937583923,0.07741130143404007,9.825947761535645,0.0005256840377114713,0.0041723549365997314,-0.02541368082165718,1.5128086805343628
8907,296.82430806757475,0.5930558443069458,-0.1039905697107315,9.795086860656738,0.00041961035458371043,-0.004070421680808067,0.02530795708298683,1.5130616426467896
8908,296.8743080683198,0.16410213708877563,0.08557747304439545,9.824581146240234,0.0003655299369711429,0.004171261563897133,-0.025220561772584915,1.512809157371521
8909,296.92430806906486,0.5881955623626709,-0.09641356021165848,9.79466724395752,0.0002755159803200513,-0.004034442361444235,0.02516043186187744,1.5130616426467896
8910,296.9743080698099,0.15831705927848816,0.08740080147981644,9.824308395385742,0.000242193418671377,0.004149671643972397,-0.025064466521143913,1.5128108263015747
8911,297.024308070555,0.5809420943260193,-0.09097325801849365,9.794638633728027,0.00016850390238687396,-0.004009204916656017,0.024996792897582054,1.5130611658096313
8912,297.07430807130004,0.15440158545970917,0.08922984451055527,9.824349403381348,0.00015332283510360867,0.004123990889638662,-0.0249169934540987,1.5128118991851807
8913,297.1243080720451,0.5740169286727905,-0.09123409539461136,9.794999122619629,9.510413656244054e-05,-0.003985493443906307,0.024832269176840782,1.5130605697631836
8914,297.17430807279015,0.1493140161037445,0.08966908603906631,9.82435131072998,9.685391705716029e-05,0.004096564836800098,-0.02477036602795124,1.5128118991851807
8915,297.2243080735352,0.4919271767139435,0.5211599469184875,9.798158645629883,0.04121531918644905,-0.002979080658406019,0.11579617112874985,1.5153535604476929
8916,297.27430807428027,-0.38376152515411377,3.088214874267578,9.827768325805664,0.07532555609941483,0.009194464422762394,0.2591114044189453,1.5250751972198486
8917,297.32430807502533,-0.7467230558395386,5.564399719238281,9.771783828735352,0.09178600460290909,0.008462704718112946,0.5300813913345337,1.5461269617080688
8918,297.3743080757704,-1.019623041152954,6.779038429260254,9.737726211547852,0.004115120507776737,0.012161321006715298,0.5374947786331177,1.574299931526184
8919,297.42430807651544,0.4893036484718323,3.1024246215820312,9.742289543151855,-0.06349606066942215,-0.0013594634365290403,0.42103245854377747,1.5978314876556396
8920,297.4743080772605,0.09499285370111465,0.6737380623817444,9.809494018554688,-0.045041218400001526,0.0033042230643332005,0.2451188862323761,1.613436222076416
8921,297.52430807800556,0.4898547828197479,0.5246585607528687,9.785818099975586,-0.024649206548929214,-0.005496777128428221,0.20496580004692078,1.6243418455123901
8922,297.5743080787506,0.11615439504384995,1.011889100074768,9.8181791305542,-0.01265242975205183,0.002088499255478382,0.0952531173825264,1.6312106847763062
8923,297.6243080794957,0.5398728847503662,0.9543942213058472,9.793625831604004,-0.007273040246218443,-0.00566094322130084,0.10369829088449478,1.6361602544784546
8924,297.67430808024073,0.1365380585193634,1.104410171508789,9.82418441772461,-0.00510829733684659,0.0026534933131188154,0.026550089940428734,1.638986349105835
8925,297.7243080809858,0.5578014850616455,0.8121904134750366,9.796446800231934,-0.004684838466346264,-0.0050224303267896175,0.05765419080853462,1.6412177085876465
8926,297.77430808173085,0.14043517410755157,0.8493570685386658,9.825589179992676,-0.004694165196269751,0.0032823693472892046,-0.003888582345098257,1.6422321796417236
8927,297.8243080824759,0.48121377825737,1.1348676681518555,9.796757698059082,0.036284368485212326,-0.0032709676306694746,0.12830069661140442,1.6455576419830322
8928,297.87430808322097,-0.38613003492355347,3.5656023025512695,9.82052230834961,0.07029399275779724,0.009389129467308521,0.2669171094894409,1.6557530164718628
8929,297.924308083966,-0.7580097317695618,5.926687240600586,9.76156234741211,0.08699557930231094,0.009203308261930943,0.5335644483566284,1.6770604848861694
8930,297.9743080847111,-2.135366916656494,8.288396835327148,9.731719970703125,0.09214972704648972,0.027965834364295006,0.764552116394043,1.710525393486023
8931,298.02430808545614,-1.46672523021698,9.145308494567871,9.618904113769531,0.013754931278526783,0.015685172751545906,0.8762993216514587,1.7529935836791992
8932,298.0743080862012,-0.032805848866701126,6.101844787597656,9.687908172607422,-0.08581135421991348,0.010893730446696281,0.6414074897766113,1.7907493114471436
8933,298.12430808694626,0.5121235251426697,1.7807693481445312,9.765558242797852,-0.07701747864484787,-0.0030783982947468758,0.47324323654174805,1.8174341917037964
8934,298.1743080876913,0.07677499204874039,1.270584225654602,9.799426078796387,-0.04465680941939354,0.0012252368032932281,0.2765361964702606,1.8349928855895996
8935,298.2243080884364,0.4990308880805969,1.4638737440109253,9.779361724853516,-0.02465514838695526,-0.007373291067779064,0.22529058158397675,1.847115397453308
8936,298.27430808918143,0.1322706937789917,1.825124979019165,9.815049171447754,-0.014475923962891102,0.000663674552924931,0.10627266764640808,1.854704737663269
8937,298.3243080899265,0.5642186403274536,1.5851407051086426,9.791975021362305,-0.01052605826407671,-0.006830384023487568,0.11084162443876266,1.8600797653198242
8938,298.37430809067155,0.07293076068162918,0.972283124923706,9.83311653137207,-0.049848638474941254,0.0024180812761187553,-0.060607586055994034,1.8608500957489014
8939,298.4243080914166,0.03806660696864128,-1.8237154483795166,9.8187255859375,-0.08436266332864761,-0.0018236135365441442,-0.22489042580127716,1.8532435894012451
8940,298.47430809216166,-1.1590185165405273,-4.55853796005249,9.829279899597168,-0.10011064261198044,0.013016837649047375,-0.5072137117385864,1.8335307836532593
8941,298.5243080929067,-0.5756742358207703,-5.969675064086914,9.734160423278809,-0.012286455370485783,0.001288784435018897,-0.5210225582122803,1.8062516450881958
8942,298.5743080936518,0.11174538731575012,-2.4676363468170166,9.779479026794434,0.0552908293902874,0.004869439173489809,-0.41454073786735535,1.7832889556884766
8943,298.62430809439684,0.5493555665016174,-0.18488870561122894,9.786210060119629,0.03773457184433937,-0.005646646022796631,-0.23658490180969238,1.7680764198303223
8944,298.6743080951419,0.09748420864343643,-0.15349867939949036,9.81985092163086,0.01799585483968258,0.0021095413248986006,-0.2032248079776764,1.7573661804199219
8945,298.72430809588695,0.5588803887367249,-0.7398127317428589,9.793636322021484,0.0068745906464755535,-0.006156145129352808,-0.09221640974283218,1.7506364583969116
8946,298.774308096632,0.1383228600025177,-0.7522701025009155,9.825858116149902,0.0022407136857509613,0.002396170748397708,-0.10332655161619186,1.7457472085952759
8947,298.82430809737707,0.5041138529777527,-1.5675535202026367,9.796696662902832,-0.04010116308927536,-0.004123574588447809,-0.12009993195533752,1.7406656742095947
8948,298.8743080981221,-0.3483923375606537,-3.703930377960205,9.820137977600098,-0.07332399487495422,0.008536123670637608,-0.32623937726020813,1.7286614179611206
8949,298.9243080988672,0.07610561698675156,-4.861754894256592,9.760880470275879,0.017642498016357422,-0.0018295722547918558,-0.2655400037765503,1.7127821445465088
8950,298.97430809961224,0.11224591732025146,-1.5575551986694336,9.809057235717773,0.036409489810466766,0.004503295756876469,-0.2231142371892929,1.7009334564208984
8951,299.0243081003573,0.5322360992431641,-0.6257328987121582,9.78900146484375,0.0243399515748024,-0.004629326518625021,-0.10663725435733795,1.6933753490447998
8952,299.07430810110236,0.11444617062807083,-0.4971997141838074,9.820639610290527,0.014465953223407269,0.0032832794822752476,-0.11350148916244507,1.6878973245620728
8953,299.1243081018474,0.5566708445549011,-0.7619374990463257,9.793238639831543,0.008882159367203712,-0.004883822053670883,-0.032923534512519836,1.6846929788589478
8954,299.1743081025925,0.13809551298618317,-0.5754925012588501,9.823882102966309,0.006255005486309528,0.0033512033987790346,-0.06282356381416321,1.6821777820587158
8955,299.22430810333753,0.5644063949584961,-0.6919184327125549,9.795473098754883,0.005007810425013304,-0.004581161309033632,0.00045094656525179744,1.6809601783752441
8956,299.2743081040826,0.14459162950515747,-0.42042726278305054,9.825078010559082,0.00452601769939065,0.0036265170201659203,-0.040192849934101105,1.6797758340835571
8957,299.32430810482765,0.5630046129226685,-0.5065276026725769,9.795674324035645,0.004190959967672825,-0.004287191666662693,0.015007048845291138,1.6794342994689941
8958,299.3743081055727,0.14324508607387543,-0.23615588247776031,9.824928283691406,0.003978066146373749,0.003823696170002222,-0.030435118824243546,1.6788262128829956
8959,299.42430810631777,0.5587347745895386,-0.3402756154537201,9.795958518981934,0.003649864112958312,-0.0040986728854477406,0.021023845300078392,1.6788543462753296
8960,299.4743081070628,0.14056015014648438,-0.097702756524086,9.824626922607422,0.0033464129082858562,0.003924706019461155,-0.026395704597234726,1.6784842014312744
8961,299.5243081078079,0.5523850321769714,-0.2268601804971695,9.795642852783203,0.0029372244607657194,-0.003989103250205517,0.023300504311919212,1.6786587238311768
8962,299.57430810855294,0.13677527010440826,-0.010804323479533195,9.824471473693848,0.002585203852504492,0.003962957300245762,-0.024794548749923706,1.6783803701400757
8963,299.624308109298,0.5470927953720093,-0.15714199841022491,9.795618057250977,0.00217246706597507,-0.003925848286598921,0.02401428110897541,1.67860746383667
8964,299.67430811004306,0.05634143948554993,-0.5740748643875122,9.826665878295898,-0.03938252478837967,0.004998072516173124,-0.1147300973534584,1.6760603189468384
8965,299.7243081107881,0.012495995499193668,-3.131469964981079,9.797523498535156,-0.07449228316545486,0.0014133540680631995,-0.26286542415618896,1.6662724018096924
8966,299.7743081115332,-0.39310693740844727,-4.116093158721924,9.795483589172363,0.016920823603868484,0.00655010063201189,-0.2979193925857544,1.6510000228881836
8967,299.82430811227823,0.5037257671356201,-1.2187567949295044,9.778945922851562,0.03491722792387009,-0.0034880193416029215,-0.1624143421649933,1.6402660608291626
8968,299.8743081130233,0.07420649379491806,-0.04972030967473984,9.817619323730469,0.02220076322555542,0.0036075166426599026,-0.1516980081796646,1.6325502395629883
8969,299.92430811376835,0.5070945620536804,-0.38119566440582275,9.791906356811523,0.011808072216808796,-0.00463890889659524,-0.06076427176594734,1.6277637481689453
8970,299.9743081145134,0.1057777851819992,-0.36769402027130127,9.822527885437012,0.006221356801688671,0.0031927514355629683,-0.08088231086730957,1.624159574508667
8971,300.02430811525846,0.5221012234687805,-0.603127658367157,9.795591354370117,0.003573730820789933,-0.004527995828539133,-0.013293883763253689,1.6221778392791748
8972,300.0743081160035,0.11853371560573578,-0.41051745414733887,9.824543952941895,0.0026552160270512104,0.003395527834072709,-0.04814852029085159,1.6204850673675537
8973,300.1243081167486,0.5224420428276062,-0.529080331325531,9.796438217163086,0.002364734886214137,-0.0042301747016608715,0.00821947492659092,1.6197854280471802
8974,300.17430811749364,0.11993346363306046,-0.2822057902812958,9.824580192565918,0.0024319575168192387,0.00361631833948195,-0.03350655734539032,1.6189522743225098
8975,300.2243081182387,0.44385334849357605,-1.0004024505615234,9.797928810119629,-0.03924162685871124,-0.002786683849990368,-0.0786232054233551,1.6164792776107788
8976,300.27430811898375,-0.40836402773857117,-3.1964266300201416,9.823185920715332,-0.07332760095596313,0.009027153253555298,-0.30058804154396057,1.606054663658142
8977,300.3243081197288,-0.8077364563941956,-5.94143009185791,9.76583480834961,-0.09086449444293976,0.009356547147035599,-0.5092794299125671,1.585020661354065
8978,300.37430812047387,-2.154202461242676,-8.157968521118164,9.73397445678711,-0.09553967416286469,0.027378201484680176,-0.7855120897293091,1.551196575164795
8979,300.4243081212189,-1.4956135749816895,-9.296878814697266,9.618112564086914,-0.01860462687909603,0.015184392221271992,-0.8415537476539612,1.5087963342666626
8980,300.474308121964,-0.0532899908721447,-6.040987491607666,9.687448501586914,0.08372405916452408,0.011351490393280983,-0.6956583261489868,1.4702683687210083
8981,300.52430812270904,0.5163878798484802,-2.0116384029388428,9.765658378601074,0.07514763623476028,-0.003337845206260681,-0.4279899001121521,1.4437944889068604
8982,300.5743081234541,0.024119127541780472,-1.165408968925476,9.800210952758789,0.0437900573015213,0.0015487457858398557,-0.3316188454627991,1.4254958629608154
8983,300.62430812419916,0.4836946725845337,-1.7319194078445435,9.7785005569458,0.02369571290910244,-0.007281940430402756,-0.17756903171539307,1.4137119054794312
8984,300.6743081249442,0.10064119100570679,-1.7277413606643677,9.81411075592041,0.014225849881768227,0.0006824622978456318,-0.1584007441997528,1.4055050611495972
8985,300.7243081256893,0.5369060039520264,-1.8416646718978882,9.7915678024292,0.010241810232400894,-0.00666067423298955,-0.06210177019238472,1.4005579948425293
8986,300.77430812643433,0.12993215024471283,-1.4631288051605225,9.823204040527344,0.009231514297425747,0.0018350902246311307,-0.0798717513680458,1.3969664573669434
8987,300.8243081271794,0.5470961332321167,-1.3900468349456787,9.796046257019043,0.00900379940867424,-0.005464078858494759,-0.010693884454667568,1.3950862884521484
8988,300.87430812792445,0.13474339246749878,-0.9588011503219604,9.825275421142578,0.009117664769291878,0.002857350278645754,-0.04570955038070679,1.3935225009918213
8989,300.9243081286695,0.5434158444404602,-0.9064026474952698,9.796941757202148,0.00889813806861639,-0.004646142479032278,0.011151867918670177,1.3929599523544312
8990,300.97430812941457,0.1311035305261612,-0.5355720520019531,9.825180053710938,0.008541593328118324,0.0034427850041538477,-0.0315396673977375,1.3922457695007324
8991,301.0243081301596,0.5396739840507507,-0.5505900979042053,9.796432495117188,0.007839446887373924,-0.004205542150884867,0.01985069364309311,1.3922185897827148
8992,301.0743081309047,0.12604373693466187,-0.25133588910102844,9.824833869934082,0.007084037642925978,0.003720478620380163,-0.02601804956793785,1.3918377161026
8993,301.12430813164974,0.5324170589447021,-0.3297102451324463,9.796181678771973,0.006158631294965744,-0.003988318145275116,0.022957971319556236,1.3920103311538696
8994,301.1743081323948,0.12450208514928818,-0.08176994323730469,9.82431697845459,0.005312011577188969,0.003834183793514967,-0.024048974737524986,1.391748309135437
8995,301.22430813313986,0.44968536496162415,0.4153650104999542,9.800178527832031,0.046015284955501556,-0.002992635127156973,0.11591558158397675,1.3943043947219849
8996,301.2743081338849,-0.0010420186445116997,1.571211814880371,9.822273254394531,-0.0027631984557956457,0.004115457180887461,0.05566118657588959,1.3986607789993286
8997,301.32430813463,0.5129279494285583,0.1320410668849945,9.792499542236328,-0.0073385462164878845,-0.003809040877968073,0.07781156152486801,1.402077078819275
8998,301.37430813537503,0.10780561715364456,0.06850362569093704,9.822674751281738,-0.003910836298018694,0.003724680980667472,0.013542428612709045,1.4040148258209229
8999,301.4243081361201,0.4349207580089569,0.5889884233474731,9.79810905456543,0.040273912250995636,-0.0029109008610248566,0.14070475101470947,1.4080452919006348
9000,301.47430813686515,-0.00225613871589303,1.7670326232910156,9.820707321166992,-0.006591405253857374,0.004064046777784824,0.07257407158613205,1.4133929014205933
9001,301.5243081376102,0.5006070137023926,0.32450589537620544,9.792816162109375,-0.010087366215884686,-0.0037976440507918596,0.08850307762622833,1.417458415031433
9002,301.57430813835526,0.10254260897636414,0.24631835520267487,9.822458267211914,-0.006061418913304806,0.0036462123971432447,0.02082638069987297,1.4198222160339355
9003,301.6243081391003,0.4966406524181366,0.11722517758607864,9.79577922821045,-0.0032327331136912107,-0.003937717992812395,0.05265535041689873,1.421796202659607
9004,301.6743081398454,0.10679957270622253,0.32170361280441284,9.82353401184082,-0.0017336888704448938,0.0036461628042161465,-0.003746064379811287,1.4227213859558105
9005,301.72430814059044,0.49511200189590454,0.1527692973613739,9.796357154846191,-0.0012057655258104205,-0.0038751172833144665,0.03587492182850838,1.4237130880355835
9006,301.7743081413355,0.030028169974684715,0.9187344312667847,9.825922012329102,0.040759578347206116,0.004875748418271542,0.08095788955688477,1.4263224601745605
9007,301.82430814208055,-0.03566550090909004,3.1586081981658936,9.797013282775879,0.07537112385034561,0.001472884207032621,0.3051754832267761,1.4369090795516968
9008,301.8743081428256,-0.4243372976779938,4.441045761108398,9.792116165161133,-0.01660073734819889,0.0062698982656002045,0.2581157386302948,1.4521349668502808
9009,301.92430814357067,0.4534947872161865,1.204561471939087,9.779091835021973,-0.0350814051926136,-0.003067359561100602,0.21441152691841125,1.4636051654815674
9010,301.9743081443157,0.06356299668550491,0.3495033383369446,9.816513061523438,-0.02233177423477173,0.0032902746461331844,0.10750320553779602,1.471035361289978
9011,302.0243081450608,0.38914769887924194,0.9388453364372253,9.792021751403809,0.02966255322098732,-0.0031230447348207235,0.2031361609697342,1.4787644147872925
9012,302.07430814580584,-0.4102688133716583,3.6840054988861084,9.813864707946777,0.06977608799934387,0.008863591589033604,0.323812335729599,1.4921222925186157
9013,302.1243081465509,-0.009388146921992302,4.726841449737549,9.758922576904297,-0.019900381565093994,-0.0010776438284665346,0.33814188838005066,1.5098541975021362
9014,302.17430814729596,0.08161611109972,1.8066974878311157,9.805408477783203,-0.03697126731276512,0.004003699403256178,0.19285424053668976,1.522264003753662
9015,302.224308148041,0.4374936819076538,0.5807425379753113,9.789552688598633,-0.024256737902760506,-0.004147945903241634,0.16781942546367645,1.5310449600219727
9016,302.2743081487861,0.07667899876832962,0.8262192010879517,9.818516731262207,-0.013965857215225697,0.0028406016062945127,0.0741051435470581,1.536555528640747
9017,302.32430814953113,0.4645587205886841,0.7428814768791199,9.793953895568848,-0.00861154031008482,-0.0045501976273953915,0.08694564551115036,1.5405933856964111
9018,302.3743081502762,0.0905018299818039,0.894949734210968,9.82239055633545,-0.0060586389154195786,0.002987776417285204,0.018899714574217796,1.5428645610809326
9019,302.42430815102125,0.47943833470344543,0.6433032751083374,9.796369552612305,-0.005155186168849468,-0.004282402340322733,0.04976094141602516,1.544711709022522
9020,302.4743081517663,0.016842689365148544,1.320823073387146,9.823875427246094,0.037059903144836426,0.004640916362404823,0.09034954756498337,1.5478675365447998
9021,302.52430815251137,-0.04921676591038704,3.4821059703826904,9.791544914245605,0.07188864052295685,0.0017267849761992693,0.3102588355541229,1.5587908029556274
9022,302.5743081532564,-0.4360772371292114,4.694003582000732,9.787667274475098,-0.019900716841220856,0.006398343481123447,0.26209282875061035,1.5742435455322266
9023,302.6243081540015,0.43376004695892334,1.4022431373596191,9.779033660888672,-0.03811412677168846,-0.0029386519454419613,0.2164299190044403,1.585850715637207
9024,302.67430815474654,0.049958355724811554,0.49406322836875916,9.815570831298828,-0.025046778842806816,0.003248315304517746,0.10911564528942108,1.5933672189712524
9025,302.7243081554916,0.43930670619010925,0.4269876778125763,9.79221248626709,-0.014601202681660652,-0.0043678670190274715,0.11071360111236572,1.5988019704818726
9026,302.77430815623666,0.07589005678892136,0.7119300365447998,9.820939064025879,-0.008624378591775894,0.002889791736379266,0.03588926047086716,1.6020491123199463
9027,302.8243081569817,0.4600462019443512,0.5660037994384766,9.795823097229004,-0.005867948289960623,-0.004348164889961481,0.06099388748407364,1.604564905166626
9028,302.8743081577268,0.08583548665046692,0.6806002855300903,9.823348999023438,-0.004568904638290405,0.0031391670927405357,0.0022299429401755333,1.6058293581008911
9029,302.92430815847183,0.46612969040870667,0.43447527289390564,9.796850204467773,-0.004139627330005169,-0.0040655964985489845,0.038346510380506516,1.6070106029510498
9030,302.9743081592169,0.08611878752708435,0.5082247853279114,9.823866844177246,-0.0038604293949902058,0.003387332195416093,-0.012633861042559147,1.6073870658874512
9031,303.02430815996195,0.4691447913646698,0.25752079486846924,9.797258377075195,-0.003736044280230999,-0.0038399300538003445,0.02841474674642086,1.607981562614441
9032,303.074308160707,0.08060279488563538,0.3434152603149414,9.823404312133789,-0.0034695204813033342,0.0035304378252476454,-0.018839610740542412,1.6079785823822021
9033,303.12430816145206,0.46295782923698425,0.11723537743091583,9.796957969665527,-0.003240111982449889,-0.003701678244397044,0.024257060140371323,1.608328104019165
9034,303.1743081621971,0.08272936940193176,0.22637231647968292,9.823440551757812,-0.0028669615276157856,0.0035947472788393497,-0.02120833843946457,1.6081734895706177
9035,303.2243081629422,0.457135945558548,0.025180110707879066,9.797046661376953,-0.0025651969481259584,-0.003622328396886587,0.022610777989029884,1.6084280014038086
9036,303.27430816368724,0.07892485707998276,0.15525415539741516,9.822985649108887,-0.0021611698903143406,0.0036156957503408194,-0.021961238235235214,1.6082191467285156
9037,303.3243081644323,0.4502004086971283,-0.027964577078819275,9.797074317932129,-0.0018726076232269406,-0.0035743839107453823,0.021996043622493744,1.6084407567977905
9038,303.37430816517735,0.07999985665082932,0.11589769273996353,9.82294750213623,-0.0015083019388839602,0.0036141083110123873,-0.022083165124058723,1.6082165241241455
9039,303.4243081659224,0.445342481136322,-0.05802472308278084,9.796963691711426,-0.0012785329017788172,-0.003542704973369837,0.021768182516098022,1.608429193496704
9040,303.47430816666747,0.07167724519968033,0.09373543411493301,9.822851181030273,-0.000986670725978911,0.003602417418733239,-0.021987922489643097,1.608203411102295
9041,303.5243081674125,0.4473811388015747,-0.07033028453588486,9.797038078308105,-0.000831669894978404,-0.003517829580232501,0.02166423574090004,1.608414888381958
9042,303.5743081681576,0.06381680816411972,0.08449319005012512,9.822822570800781,-0.0006075582932680845,0.003586884355172515,-0.02183637022972107,1.608191728591919
9043,303.62430816890264,0.4407888352870941,-0.07882021367549896,9.797117233276367,-0.0005183677421882749,-0.003497274126857519,0.021587295457720757,1.6084039211273193
9044,303.6743081696477,0.06490974873304367,0.08084800094366074,9.822592735290527,-0.0003529556270223111,0.003569328458979726,-0.021683309227228165,1.6081838607788086
9045,303.72430817039276,0.43700239062309265,-0.07904136180877686,9.797234535217285,-0.0003144937218166888,-0.003478052793070674,0.021505648270249367,1.6083967685699463
9046,303.7743081711378,0.06475283205509186,0.07744818925857544,9.82279109954834,-0.0001912609295686707,0.003551108529791236,-0.02154277265071869,1.6081792116165161
9047,303.8243081718829,0.4281933009624481,-0.07954378426074982,9.796924591064453,-0.00019049957336392254,-0.003459059400483966,0.02141428552567959,1.6083921194076538
9048,303.87430817262793,0.05347072333097458,0.07771182805299759,9.82291316986084,-9.467990457778797e-05,0.0035325149074196815,-0.02141520567238331,1.6081767082214355
9049,303.924308173373,0.43065088987350464,-0.07975127547979355,9.796963691711426,-0.00011517297389218584,-0.003442098619416356,0.021315479651093483,1.608389139175415
9050,303.97430817411805,0.05842723697423935,0.07743608951568604,9.822677612304688,-3.7335696106310934e-05,0.003515080315992236,-0.02129615657031536,1.608175277709961
9051,304.0243081748631,0.4181191623210907,-0.07934319227933884,9.79736042022705,-7.447643292834982e-05,-0.003424379276111722,0.021212417632341385,1.6083869934082031
9052,304.07430817560817,0.05591358616948128,0.07811226695775986,9.822522163391113,-5.97441157879075e-06,0.0034968978725373745,-0.021183114498853683,1.608174443244934
9053,304.1243081763532,0.4131065607070923,-0.07856134325265884,9.797245979309082,-5.128182237967849e-05,-0.0034073595888912678,0.021107077598571777,1.6083853244781494
9054,304.1743081770983,-0.31925415992736816,0.9403230547904968,10.266103744506836,0.12469831854104996,0.027542416006326675,-0.00804679375141859,1.608278751373291
9055,304.22430817784334,1.4978692531585693,-1.9206554889678955,9.025732040405273,0.017467107623815536,0.007107746787369251,0.022835947573184967,1.6085413694381714
9056,304.2743081785884,-0.19102506339550018,0.8763042092323303,9.972224235534668,-7.505327084800228e-05,0.007460196036845446,-0.020345129072666168,1.6083921194076538
9057,304.32430817933346,0.24675580859184265,0.09319815784692764,9.901063919067383,-0.0025187479332089424,-0.002457053167745471,0.021824590861797333,1.608646273612976
9058,304.3743081800785,-0.03999832645058632,0.1272123008966446,9.884126663208008,-0.0022772098891437054,0.0029987667221575975,-0.020606251433491707,1.608459711074829
9059,304.4243081808236,0.8365640044212341,0.6029657125473022,10.390268325805664,-0.04758056625723839,0.032286692410707474,0.012098289094865322,1.6088463068008423
9060,304.47430818156863,-0.5642186403274536,-1.182587742805481,9.06418228149414,0.020729204639792442,-0.014275087974965572,-0.007823387160897255,1.6088826656341553
9061,304.5243081823137,0.2363940328359604,0.3428637981414795,9.776093482971191,0.002264002338051796,-0.006999969016760588,0.007203345187008381,1.6090329885482788
9062,304.57430818305875,0.3058512210845947,0.20715276896953583,9.927664756774902,-0.0006803231663070619,-0.002815634710714221,-0.005241757724434137,1.6090112924575806
9063,304.6243081838038,0.27259284257888794,0.03718700632452965,9.872940063476562,-0.0010342306923121214,-0.0008681246545165777,0.006174919195473194,1.609089970588684
9064,304.67430818454886,0.243274986743927,0.05160214379429817,9.840680122375488,-0.0009189847623929381,-2.0608371414709836e-05,-0.0057517895475029945,1.6090410947799683
9065,304.7243081852939,0.22110524773597717,-0.002398986369371414,9.822850227355957,-0.0007825877401046455,0.0002919765538536012,0.005943519528955221,1.6091041564941406
9066,304.774308186039,0.2173471748828888,0.03431682661175728,9.813007354736328,-0.0006258630892261863,0.00035701468004845083,-0.005892267916351557,1.6090458631515503
9067,304.82430818678404,0.21281622350215912,-0.014591522514820099,9.808369636535645,-0.000516507716383785,0.0003257026837673038,0.005853818729519844,1.6091039180755615
9068,304.8743081875291,0.2068057656288147,0.027962490916252136,9.806730270385742,-0.0003974319843109697,0.0002619149745441973,-0.0058998893946409225,1.6090435981750488
9069,304.92430818827415,0.20487599074840546,-0.019691862165927887,9.806385040283203,-0.0003274035407230258,0.00020115393272135407,0.005818462464958429,1.6091004610061646
9070,304.9743081890192,0.20392225682735443,0.02275419607758522,9.806696891784668,-0.00024105350894387811,0.00014941590779926628,-0.00586846424266696,1.6090404987335205
9071,305.02430818976427,0.20475775003433228,-0.01930692233145237,9.807754516601562,-0.00020200750441290438,0.00011207119678147137,0.005799092818051577,1.6090973615646362
9072,305.0743081905093,0.19874580204486847,0.020884182304143906,9.807951927185059,-0.00013823003973811865,8.379774953937158e-05,-0.005830181762576103,1.6090381145477295
9073,305.1243081912544,0.20210511982440948,-0.021225428208708763,9.808850288391113,-0.00012181537022115663,6.60439909552224e-05,0.005781317129731178,1.6090953350067139
9074,305.17430819199944,0.19618481397628784,0.02087034098803997,9.809165000915527,-7.612825720570982e-05,5.279074684949592e-05,-0.00579435657709837,1.6090368032455444
9075,305.2243081927445,0.19957846403121948,-0.020588502287864685,9.809476852416992,-7.25636855349876e-05,4.595131758833304e-05,0.0057612876407802105,1.6090940237045288
9076,305.27430819348956,0.19356951117515564,0.01903495006263256,9.809752464294434,-3.6741479561896995e-05,4.039206032757647e-05,-0.005762243177741766,1.6090360879898071
9077,305.3243081942346,0.1970178633928299,-0.021158982068300247,9.809712409973145,-4.415134390001185e-05,3.840017961920239e-05,0.005738851614296436,1.6090933084487915
9078,305.3743081949797,0.19362889230251312,0.0214966032654047,9.80998706817627,-1.4930292309145443e-05,3.479202132439241e-05,-0.005733205005526543,1.609035849571228
9079,305.42430819572473,0.18699020147323608,-0.020802153274416924,9.809950828552246,-2.7561802198761143e-05,3.4508218959672377e-05,0.0057150134816765785,1.6090929508209229
9080,305.4743081964698,0.1935221254825592,0.019607314839959145,9.809988021850586,-3.2006907986215083e-06,3.27470843330957e-05,-0.005706092808395624,1.6090357303619385
9081,305.52430819721485,0.18695510923862457,-0.02081255055963993,9.809911727905273,-1.8324788470636122e-05,3.351826671860181e-05,0.005690296646207571,1.6090925931930542
9082,305.5743081979599,0.1885431557893753,0.02103710174560547,9.809989929199219,4.342989541328279e-06,3.199239290552214e-05,-0.005680216010659933,1.6090357303619385
9083,305.62430819870497,0.18192839622497559,-0.02062629722058773,9.810030937194824,-1.3083708836347796e-05,3.318219751236029e-05,0.0056654103100299835,1.609092354774475
9084,305.67430819945,0.18846379220485687,0.019788013771176338,9.809951782226562,6.1330697462835815e-06,3.1646210118196905e-05,-0.005655094049870968,1.6090357303619385
9085,305.7243082001951,0.17939862608909607,-0.020535767078399658,9.809876441955566,-1.3006606423004996e-05,3.238924909965135e-05,0.0056407093070447445,1.609092116355896
9086,305.77430820094014,0.18348364531993866,0.021223019808530807,9.809953689575195,8.449498636764474e-06,3.162408756907098e-05,-0.005630515981465578,1.6090357303619385
9087,305.8243082016852,0.17684616148471832,-0.021065276116132736,9.810033798217773,-1.1109516890428495e-05,3.169729097862728e-05,0.005616265349090099,1.609091877937317
9088,305.87430820243026,0.17838403582572937,0.019540540874004364,9.809877395629883,9.531184332445264e-06,3.076026769122109e-05,-0.005606372840702534,1.6090357303619385
9089,305.9243082031753,0.1768636256456375,-0.019816553220152855,9.810033798217773,-9.743235750647727e-06,3.105538780800998e-05,0.005592165049165487,1.6090916395187378
9090,305.9743082039204,0.17343012988567352,0.021605320274829865,9.809879302978516,9.790111107577104e-06,2.994394708366599e-05,-0.005582621321082115,1.6090357303619385
9091,306.02430820466543,0.17678536474704742,-0.021065615117549896,9.81003475189209,-9.207917173625901e-06,3.0849598260829225e-05,0.005568360444158316,1.6090914011001587
9092,306.0743082054105,0.1708298921585083,0.01982726715505123,9.809958457946777,1.1529890798556153e-05,2.9789018299197778e-05,-0.005559107754379511,1.6090357303619385
9093,306.12430820615555,0.17425793409347534,-0.020969677716493607,9.809879302978516,-1.0423388630442787e-05,3.0489043638226576e-05,0.005545018240809441,1.6090911626815796
9094,306.1743082069006,0.16582821309566498,0.020642908290028572,9.80996036529541,9.013992894324474e-06,2.9029140932834707e-05,-0.005535969976335764,1.6090357303619385
9095,306.22430820764566,0.17425265908241272,-0.020345229655504227,9.810036659240723,-9.147549462795723e-06,2.9324663046281785e-05,0.005522083956748247,1.6090909242630005
9096,306.2743082083907,0.16075481474399567,0.019584955647587776,9.809884071350098,1.0062503861263394e-05,2.895098259614315e-05,-0.005513106472790241,1.6090357303619385
9097,306.3243082091358,0.17174920439720154,-0.019624946638941765,9.810037612915039,-9.09410937310895e-06,2.9299440939212218e-05,0.005499337334185839,1.6090906858444214
9098,306.37430820988084,0.1632954329252243,0.02136308327317238,9.809884071350098,9.289286026614718e-06,2.7992160539724864e-05,-0.005490651819854975,1.6090357303619385
9099,306.4243082106259,0.16420269012451172,-0.01996217854321003,9.8100004196167,-9.85419137577992e-06,2.915231198130641e-05,0.005477009806782007,1.6090904474258423
9100,306.47430821137095,0.16072259843349457,0.020209571346640587,9.809924125671387,9.494522601016797e-06,2.868275078071747e-05,-0.005468312185257673,1.6090357303619385
9101,306.524308212116,0.07987450808286667,0.6315779685974121,9.813102722167969,0.04356612265110016,0.001165606314316392,0.10144805908203125,1.6115275621414185
9102,306.57430821286107,-0.3932599127292633,3.2007906436920166,9.81214714050293,0.07945529371500015,0.005391326267272234,0.29503506422042847,1.6220083236694336
9103,306.6243082136061,-1.217578411102295,5.99061393737793,9.780320167541504,0.09652704745531082,0.013347906060516834,0.532400369644165,1.6438676118850708
9104,306.6743082143512,-2.1841399669647217,8.434351921081543,9.716005325317383,0.10144411772489548,0.024542801082134247,0.8135861754417419,1.6788169145584106
9105,306.72430821509624,-2.7738935947418213,10.431894302368164,9.619744300842285,0.08190388232469559,0.032209184020757675,1.0117543935775757,1.7257473468780518
9106,306.7743082158413,-2.4510836601257324,11.323014259338379,9.531242370605469,0.06141730770468712,0.03673435375094414,1.1936193704605103,1.7820278406143188
9107,306.82430821658636,-1.240348219871521,11.295880317687988,9.492588996887207,-0.010084381327033043,0.025895752012729645,1.1498597860336304,1.841424822807312
9108,306.8743082173314,0.641358494758606,7.889774322509766,9.608664512634277,-0.10527250915765762,0.009779156185686588,0.8926025629043579,1.8920588493347168
9109,306.9243082180765,0.5969774127006531,3.8125431537628174,9.755455017089844,-0.08521093428134918,-0.00015824707224965096,0.5625014901161194,1.9266784191131592
9110,306.97430821882153,0.15305840969085693,3.074018955230713,9.771851539611816,-0.04861270263791084,-0.002017196035012603,0.4336615204811096,1.9505274295806885
9111,307.0243082195666,0.13801772892475128,3.615772008895874,9.771161079406738,-0.027790352702140808,-0.0036343401297926903,0.22989746928215027,1.9659130573272705
9112,307.07430822031165,-0.5673457384109497,2.289536952972412,10.069982528686523,0.20837263762950897,-0.05460134148597717,0.2840244472026825,1.9773991107940674
9113,307.1243082210567,-7.758729457855225,-8.591950416564941,16.28385353088379,0.08213222026824951,-0.08480901271104813,0.2918662428855896,1.9909968376159668
9114,307.17430822180177,4.419605731964111,17.679391860961914,5.251580715179443,0.1321611851453781,-0.051057085394859314,0.3850165009498596,2.0077266693115234
9115,307.2243082225468,-0.13117074966430664,8.086329460144043,8.511759757995605,0.14211401343345642,-0.004496451001614332,0.5843700170516968,2.0326759815216064
9116,307.2743082232919,0.029668152332305908,11.215230941772461,8.083939552307129,-0.07768150418996811,0.0743023082613945,0.6768094301223755,2.065988540649414
9117,307.32430822403694,0.9225613474845886,13.515779495239258,6.953919410705566,-0.2957620620727539,0.18301978707313538,0.6467117071151733,2.0991978645324707
9118,307.374308224782,-0.9091404676437378,10.260784149169922,7.79725980758667,-0.03733692318201065,0.23291930556297302,0.8746902346611023,2.135479211807251
9119,307.42430822552706,0.2646729052066803,-0.624397337436676,18.164417266845703,0.16108156740665436,0.34129345417022705,1.0796223878860474,2.185892105102539
9120,307.4743082262721,-5.73219108581543,18.499774932861328,5.638099193572998,0.027532096952199936,0.20862706005573273,1.2345932722091675,2.245452880859375
9121,307.5243082270172,-3.868199586868286,14.154112815856934,7.544559478759766,-0.057944171130657196,0.1231667697429657,1.3489875793457031,2.3107261657714844
9122,307.57430822776223,-2.678738832473755,13.451372146606445,8.339980125427246,-0.0775916576385498,0.08519978076219559,1.3782074451446533,2.378547191619873
9123,307.6243082285073,-3.6676273345947266,13.434097290039062,7.007136821746826,-0.2141973376274109,-0.014337949454784393,1.558276891708374,2.452868938446045
9124,307.67430822925235,-3.5444703102111816,12.036148071289062,7.162660598754883,-0.24588942527770996,-0.08706943690776825,1.6730468273162842,2.534179925918579
9125,307.7243082299974,-2.6488003730773926,11.900471687316895,8.39260196685791,-0.10984685271978378,-0.07762711495161057,1.6797211170196533,2.6195175647735596
9126,307.77430823074246,0.07787036895751953,14.481790542602539,11.105439186096191,0.005836142227053642,-0.016823159530758858,1.503809928894043,2.6977667808532715
9127,307.8243082314875,-0.22957134246826172,16.086164474487305,10.72633171081543,0.008746933192014694,0.02209530770778656,1.459943413734436,2.7714717388153076
9128,307.8743082322326,-0.3871421813964844,15.680611610412598,10.119269371032715,-0.0009701820090413094,0.033727508038282394,1.3877698183059692,2.842202663421631
9129,307.92430823297764,-1.0371532440185547,14.701752662658691,9.779006958007812,-0.010599102824926376,0.0482594333589077,1.394194483757019,2.911756992340088
9130,307.9743082337227,-0.8416585922241211,14.128533363342285,9.539219856262207,-0.015493374317884445,0.04482117295265198,1.3465496301651,2.980072021484375
9131,308.02430823446775,-1.2959871292114258,13.435544967651367,9.442278861999512,-0.018871022388339043,0.051747143268585205,1.3676117658615112,3.0480504035949707
9132,308.0743082352128,-0.9412946701049805,13.163979530334473,9.361842155456543,-0.019308852031826973,0.04381674528121948,1.3229405879974365,3.1151411533355713
9133,308.12430823595787,-1.335099220275879,12.671321868896484,9.368709564208984,-0.020024357363581657,0.04918719083070755,1.348981499671936,3.182096481323242
9134,308.1743082367029,-0.9153003692626953,12.533784866333008,9.349150657653809,-0.018803581595420837,0.04022841900587082,1.303264856338501,3.2482223510742188
9135,308.224308237448,-1.3016166687011719,12.120734214782715,9.39130973815918,-0.018843475729227066,0.045893676578998566,1.3320691585540771,3.3142738342285156
9136,308.27430823819304,-0.8548660278320312,12.042348861694336,9.386948585510254,-0.0171805527061224,0.03683207929134369,1.2850221395492554,3.379507303237915
9137,308.3243082389381,-1.2573270797729492,11.669447898864746,9.435105323791504,-0.01721048541367054,0.04313814640045166,1.3161677122116089,3.444713592529297
9138,308.37430823968316,-0.786442756652832,11.630247116088867,9.42881965637207,-0.015473797917366028,0.034109603613615036,1.2681280374526978,3.509115695953369
9139,308.4243082404282,-1.2069463729858398,11.265403747558594,9.474778175354004,-0.015644807368516922,0.04098866134881973,1.3014435768127441,3.573540210723877
9140,308.4743082411733,-0.7205419540405273,11.263912200927734,9.462994575500488,-0.013909281231462955,0.031951867043972015,1.2526923418045044,3.6371819972991943
9141,308.52430824191833,-1.1631650924682617,10.906173706054688,9.505331039428711,-0.014222705736756325,0.03927887603640556,1.2879676818847656,3.700892686843872
9142,308.5743082426634,-0.6696224212646484,10.91927719116211,9.488741874694824,-0.012494772672653198,0.03019450604915619,1.2386592626571655,3.7638401985168457
9143,308.62430824340845,-1.1153392791748047,10.596227645874023,9.528218269348145,-0.012935368344187737,0.03787378966808319,1.275665521621704,3.826900005340576
9144,308.6743082441535,-0.6119346618652344,10.628519058227539,9.508254051208496,-0.011222954839468002,0.028719546273350716,1.2258895635604858,3.889216423034668
9145,308.72430824489857,-1.080636978149414,10.306835174560547,9.546364784240723,-0.01178192999213934,0.036685019731521606,1.264412760734558,3.9516828060150146
9146,308.7743082456436,-0.5691099166870117,10.364324569702148,9.523622512817383,-0.01008933037519455,0.027454150840640068,1.2142244577407837,4.013422012329102
9147,308.8243082463887,-1.035787582397461,10.062967300415039,9.561193466186523,-0.010762158781290054,0.03565788269042969,1.2540801763534546,4.075344085693359
9148,308.87430824713374,-0.5317955017089844,10.126277923583984,9.536894798278809,-0.009085949510335922,0.026350826025009155,1.2035216093063354,4.1365532875061035
9149,308.9243082478788,-1.008195400238037,9.838471412658691,9.573542594909668,-0.009865966625511646,0.03476002812385559,1.2445627450942993,4.1979756355285645
9150,308.97430824862386,-0.49185657501220703,9.914555549621582,9.548154830932617,-0.008213162422180176,0.025379888713359833,1.1936701536178589,4.258698463439941
9151,309.0243082493689,-0.9796643257141113,9.637633323669434,9.584639549255371,-0.009089759550988674,0.03396519273519516,1.2357650995254517,4.319659233093262
9152,309.074308250114,-0.45320749282836914,9.727855682373047,9.55774211883545,-0.007453485392034054,0.024516653269529343,1.1845715045928955,4.37993049621582
9153,309.12430825085903,-0.9502854347229004,9.455384254455566,9.594438552856445,-0.008416257798671722,0.033257219940423965,1.2276170253753662,4.440464973449707
9154,309.1743082516041,0.2823948860168457,8.808280944824219,9.578857421875,-0.061903294175863266,0.011827544309198856,1.0390290021896362,4.497130393981934
9155,309.22430825234915,0.867023229598999,5.04296350479126,9.720688819885254,-0.12477224320173264,0.008468851447105408,0.8046820163726807,4.542638778686523
9156,309.2743082530942,1.2537550926208496,1.5242849588394165,9.776731491088867,-0.09801553934812546,-0.009272214025259018,0.46514785289764404,4.572286128997803
9157,309.32430825383926,0.4313230514526367,0.7158417105674744,9.815876007080078,-0.058084648102521896,-0.00013777241110801697,0.3583545386791229,4.592043876647949
9158,309.3743082545843,1.0254955291748047,1.3024029731750488,9.781278610229492,-0.03328040614724159,-0.011199435219168663,0.17311464250087738,4.604189872741699
9159,309.4243082553294,0.44115400314331055,1.198148250579834,9.82800006866455,-0.02046750858426094,0.0007168678566813469,0.1670733392238617,4.612542152404785
9160,309.47430825607444,1.0278013944625854,1.3899269104003906,9.792861938476562,-0.014211369678378105,-0.009090811014175415,0.05056632310152054,4.617309093475342
9161,309.5243082568195,0.4409301280975342,0.9732612371444702,9.834362983703613,-0.011234567500650883,0.0028598690405488014,0.08729632943868637,4.620887756347656
9162,309.57430825756455,0.9960887432098389,1.0258125066757202,9.79518985748291,-0.00977250374853611,-0.007181813474744558,-9.603855869499967e-05,4.622591972351074
9163,309.6243082583096,0.43142688274383545,0.5857511758804321,9.833699226379395,-0.00874304212629795,0.004291255492717028,0.05457153171300888,4.624206066131592
9164,309.67430825905467,0.9800331592559814,0.6634122133255005,9.793453216552734,-0.008004948496818542,-0.006100368686020374,-0.0205686017870903,4.624663352966309
9165,309.7243082597997,0.4110141694545746,0.2806808352470398,9.831769943237305,-0.00709108030423522,0.004993803799152374,0.0413556843996048,4.625485420227051
9166,309.7743082605448,0.9669060707092285,0.41360175609588623,9.791763305664062,-0.0063398550264537334,-0.0055878423154354095,-0.028553955256938934,4.6254472732543945
9167,309.82430826128984,0.3326778709888458,0.624633252620697,9.831787109375,0.030970297753810883,0.006194727960973978,0.11575497686862946,4.627980709075928
9168,309.8743082620349,0.4767459034919739,2.903780937194824,9.792909622192383,0.06205254793167114,-0.00035121478140354156,0.2225193828344345,4.636625289916992
9169,309.92430826277996,-0.8055249452590942,4.9196248054504395,9.81208610534668,0.07590267807245255,0.016213543713092804,0.4825859069824219,4.655519962310791
9170,309.974308263525,-1.1864901781082153,7.002535820007324,9.73566722869873,0.08020254969596863,0.015577759593725204,0.6720705628395081,4.6851911544799805
9171,310.0243082642701,-1.465133786201477,7.454416751861572,9.704462051391602,0.001023407792672515,0.02009207382798195,0.7775845527648926,4.722746849060059
9172,310.07430826501513,0.7206692099571228,4.328994274139404,9.694993019104004,-0.08690497279167175,-0.001422155648469925,0.5319768786430359,4.7551140785217285
9173,310.1243082657602,0.3526623547077179,0.23625142872333527,9.808401107788086,-0.07523667067289352,0.004327643197029829,0.40597665309906006,4.777581214904785
9174,310.17430826650525,0.8631541132926941,-0.09324974566698074,9.778791427612305,-0.042988888919353485,-0.008766673505306244,0.20756924152374268,4.791701793670654
9175,310.2243082672503,0.3078601360321045,0.12817464768886566,9.823585510253906,-0.022117262706160545,0.0017958772368729115,0.19120948016643524,4.801459789276123
9176,310.27430826799537,0.9090720415115356,0.679855227470398,9.790379524230957,-0.011160645633935928,-0.008599536493420601,0.06816879659891129,4.807224273681641
9177,310.3243082687404,0.3726038932800293,0.5450610518455505,9.832498550415039,-0.0060914261266589165,0.002770420163869858,0.09865263849496841,4.8114914894104
9178,310.3743082694855,0.9288580417633057,0.7708208560943604,9.794569969177246,-0.004052506294101477,-0.00723270233720541,0.008822042495012283,4.813683986663818
9179,310.42430827023054,0.3747423589229584,0.44791221618652344,9.833337783813477,-0.0033442331477999687,0.003945901524275541,0.05946512892842293,4.815621376037598
9180,310.4743082709756,0.936785101890564,0.5923715829849243,9.793845176696777,-0.0032505285926163197,-0.006203493569046259,-0.015981106087565422,4.816309928894043
9181,310.52430827172066,0.371915727853775,0.2585551142692566,9.831640243530273,-0.003170114941895008,0.00467065442353487,0.043116334825754166,4.8172760009765625
9182,310.5743082724657,0.9238241910934448,0.4062511920928955,9.792458534240723,-0.003175509162247181,-0.005626969039440155,-0.026052644476294518,4.817346572875977
9183,310.6243082732108,0.36880576610565186,0.10228848457336426,9.830282211303711,-0.0029476662166416645,0.005023688077926636,0.03638412058353424,4.817914962768555
9184,310.67430827395583,0.8466548323631287,-0.27116823196411133,9.795064926147461,-0.039914969354867935,-0.004583969712257385,-0.11264009028673172,4.815670967102051
9185,310.7243082747009,-0.12908923625946045,-2.694199323654175,9.836541175842285,-0.07009130716323853,0.0096517875790596,-0.22164224088191986,4.807079315185547
9186,310.77430827544595,0.4095776081085205,-3.436715841293335,9.772265434265137,0.01523478515446186,-0.0031363042071461678,-0.27378445863723755,4.79336404800415
9187,310.824308276191,0.3199326694011688,-0.8035826683044434,9.8135347366333,0.032078761607408524,0.0052258046343922615,-0.12950685620307922,4.7841339111328125
9188,310.87430827693606,0.842413067817688,0.3710073232650757,9.785764694213867,0.019991103559732437,-0.005580374971032143,-0.13784709572792053,4.777500629425049
9189,310.9243082776811,0.3373469114303589,-0.027818236500024796,9.825654983520508,0.010050367563962936,0.004383665043860674,-0.03802810609340668,4.773658752441406
9190,310.9743082784262,0.8640134930610657,0.01712452620267868,9.790800094604492,0.00453556003049016,-0.005801364313811064,-0.07738781720399857,4.770617485046387
9191,311.02430827917124,0.3390538692474365,-0.31352975964546204,9.8289213180542,0.0019299406558275223,0.0045629641972482204,0.0020848626736551523,4.76915979385376
9192,311.0743082799163,0.8722785115242004,-0.1090257465839386,9.792047500610352,0.0008399891667068005,-0.005529732909053564,-0.05083177238702774,4.767692565917969
9193,311.12430828066135,0.3413739800453186,-0.3333359360694885,9.829317092895508,0.0005953440559096634,0.004821453709155321,0.01928168348968029,4.76726770401001
9194,311.1743082814064,0.8646543025970459,-0.07063669711351395,9.791973114013672,0.0005606191698461771,-0.005270935595035553,-0.03928789496421814,4.766479969024658
9195,311.22430828215147,0.33756014704704285,-0.27215343713760376,9.828810691833496,0.0007311603403650224,0.004976444877684116,0.026438811793923378,4.766495704650879
9196,311.2743082828965,0.8606415390968323,-0.006710946559906006,9.791682243347168,0.0007699213456362486,-0.005101388785988092,-0.03430454060435295,4.765995025634766
9197,311.3243082836416,0.3284941017627716,-0.2094312161207199,9.828505516052246,0.000881969986949116,0.005042032338678837,0.02926286868751049,4.766192436218262
9198,311.37430828438664,0.8505591750144958,0.03987860679626465,9.791468620300293,0.0008246328216046095,-0.004996841307729483,-0.032140906900167465,4.765811920166016
9199,311.4243082851317,0.32078513503074646,-0.16558945178985596,9.828069686889648,0.0008400990627706051,0.005055863410234451,0.03025694377720356,4.766080856323242
9200,311.47430828587676,0.8448179960250854,0.07481954991817474,9.791363716125488,0.0007150222081691027,-0.004930800758302212,-0.031163068488240242,4.765748977661133
9201,311.5243082866218,0.3120878040790558,-0.13935747742652893,9.828054428100586,0.0006833503721281886,0.005043609067797661,0.03049798123538494,4.766042709350586
9202,311.5743082873669,0.8357620239257812,0.09472543001174927,9.79149055480957,0.0005401598755270243,-0.004882705397903919,-0.030669894069433212,4.765730857849121
9203,311.62430828811193,0.30533257126808167,-0.1234254315495491,9.827640533447266,0.0005029569147154689,0.005020232405513525,0.030442656949162483,4.766033172607422
